% robobot mission Accelerometer and gyro log
% 1 Timestamp in seconds
% 2-4 accelerometer x,y,z [m/s^2]
% 5-7 gyro x,y,z [deg/s]
1578227613.309 -0.527 0.369 10.168 -0.153 0.366 0.031
1578227613.315 -0.527 0.369 10.168 -0.183 0.000 0.000
1578227613.350 -0.578 0.410 10.127 -0.183 0.000 0.000
1578227613.355 -0.578 0.410 10.127 -0.061 0.244 0.092
1578227613.390 -0.626 0.362 10.091 -0.061 0.244 0.092
1578227613.395 -0.626 0.362 10.091 -0.061 0.305 -0.153
1578227613.429 -0.587 0.362 10.129 -0.061 0.305 -0.153
1578227613.436 -0.587 0.362 10.129 -0.153 0.244 0.153
1578227613.465 -0.527 0.403 10.108 -0.153 0.244 0.153
1578227613.475 -0.527 0.403 10.108 0.000 0.214 0.031
1578227613.509 -0.556 0.348 10.170 0.000 0.214 0.031
1578227613.516 -0.556 0.348 10.170 -0.092 0.092 -0.183
1578227613.545 -0.580 0.360 10.122 -0.092 0.092 -0.183
1578227613.552 -0.580 0.360 10.122 -0.122 0.153 -0.031
1578227613.590 -0.484 0.374 10.149 -0.122 0.153 -0.031
1578227613.595 -0.484 0.374 10.149 -0.275 0.244 -0.122
1578227613.627 -0.563 0.362 10.175 -0.275 0.244 -0.122
1578227613.631 -0.563 0.362 10.175 -0.153 0.031 0.000
1578227613.665 -0.532 0.364 10.108 -0.153 0.031 0.000
1578227613.675 -0.532 0.364 10.108 -0.183 0.092 -0.092
1578227613.705 -0.527 0.420 10.076 -0.183 0.092 -0.092
1578227613.711 -0.527 0.420 10.076 -0.244 0.183 0.031
1578227613.746 -0.587 0.396 10.199 -0.244 0.183 0.031
1578227613.751 -0.587 0.396 10.199 -0.061 0.122 0.031
1578227613.786 -0.489 0.410 10.113 -0.061 0.122 0.031
1578227613.792 -0.489 0.410 10.113 -0.031 0.214 0.000
1578227613.825 -0.494 0.429 10.156 -0.031 0.214 0.000
1578227613.832 -0.494 0.429 10.156 -0.061 0.183 -0.275
1578227613.865 -0.537 0.364 10.160 -0.061 0.183 -0.275
1578227613.872 -0.537 0.364 10.160 -0.122 0.092 -0.122
1578227613.906 -0.614 0.345 10.029 -0.122 0.092 -0.122
1578227613.911 -0.614 0.345 10.029 -0.153 0.122 0.000
1578227613.945 -0.580 0.420 10.055 -0.153 0.122 0.000
1578227613.952 -0.580 0.420 10.055 -0.092 0.061 -0.031
1578227613.982 -0.530 0.352 10.175 -0.092 0.061 -0.031
1578227613.992 -0.530 0.352 10.175 -0.183 0.122 0.153
1578227614.025 -0.523 0.434 10.045 -0.183 0.122 0.153
1578227614.031 -0.523 0.434 10.045 0.031 0.244 -0.031
1578227614.061 -0.520 0.388 10.113 0.031 0.244 -0.031
1578227614.067 -0.520 0.388 10.113 -0.153 0.153 0.061
1578227614.105 -0.503 0.376 10.156 -0.153 0.153 0.061
1578227614.112 -0.503 0.376 10.156 -0.122 0.031 -0.031
1578227614.141 -0.597 0.333 10.064 -0.122 0.031 -0.031
1578227614.148 -0.597 0.333 10.064 -0.244 0.153 -0.275
1578227614.182 -0.561 0.427 10.139 -0.244 0.153 -0.275
1578227614.192 -0.561 0.427 10.139 -0.153 0.214 0.000
1578227614.223 -0.525 0.412 10.156 -0.153 0.214 0.000
1578227614.227 -0.525 0.412 10.156 -0.122 0.305 0.061
1578227614.262 -0.583 0.336 10.146 -0.122 0.305 0.061
1578227614.268 -0.583 0.336 10.146 -0.092 0.122 -0.061
1578227614.302 -0.513 0.405 10.098 -0.092 0.122 -0.061
1578227614.308 -0.513 0.405 10.098 -0.214 0.244 0.031
1578227614.342 -0.561 0.424 10.139 -0.214 0.244 0.031
1578227614.348 -0.561 0.424 10.139 -0.122 0.092 -0.061
1578227614.382 -0.535 0.369 10.172 -0.122 0.092 -0.061
1578227614.388 -0.535 0.369 10.172 0.000 0.183 0.061
1578227614.422 -0.544 0.448 10.187 0.000 0.183 0.061
1578227614.428 -0.544 0.448 10.187 -0.061 0.214 -0.031
1578227614.461 -0.575 0.405 10.139 -0.061 0.214 -0.031
1578227614.468 -0.575 0.405 10.139 -0.183 0.031 0.000
1578227614.498 -0.542 0.364 10.146 -0.183 0.031 0.000
1578227614.507 -0.542 0.364 10.146 -0.183 0.305 0.031
1578227614.542 -0.580 0.376 10.113 -0.183 0.305 0.031
1578227614.548 -0.580 0.376 10.113 -0.122 0.000 0.031
1578227614.578 -0.571 0.302 10.084 -0.122 0.000 0.031
1578227614.584 -0.571 0.302 10.084 -0.214 0.153 -0.061
1578227614.623 -0.513 0.350 10.079 -0.214 0.153 -0.061
1578227614.627 -0.513 0.350 10.079 -0.153 0.122 0.000
1578227614.658 -0.559 0.391 10.120 -0.153 0.122 0.000
1578227614.662 -0.559 0.391 10.120 -0.092 0.122 -0.031
1578227614.698 -0.573 0.336 10.223 -0.092 0.122 -0.031
1578227614.708 -0.573 0.336 10.223 -0.183 0.275 -0.122
1578227614.737 -0.499 0.422 10.101 -0.183 0.275 -0.122
1578227614.744 -0.499 0.422 10.101 -0.031 0.000 0.061
1578227614.778 -0.539 0.381 10.072 -0.031 0.000 0.061
1578227614.785 -0.539 0.381 10.072 -0.122 0.153 -0.092
1578227614.818 -0.515 0.386 10.199 -0.122 0.153 -0.092
1578227614.824 -0.515 0.386 10.199 -0.153 0.244 0.000
1578227614.859 -0.515 0.391 10.105 -0.153 0.244 0.000
1578227614.863 -0.515 0.391 10.105 -0.305 0.275 -0.031
1578227614.897 -0.544 0.388 10.096 -0.305 0.275 -0.031
1578227614.904 -0.544 0.388 10.096 -0.214 0.000 -0.183
1578227614.937 -0.525 0.376 10.050 -0.214 0.000 -0.183
1578227614.944 -0.525 0.376 10.050 -0.214 0.122 -0.031
1578227614.977 -0.489 0.319 10.141 -0.214 0.122 -0.031
1578227614.985 -0.489 0.319 10.141 0.061 0.244 -0.031
1578227615.014 -0.544 0.355 10.158 0.061 0.244 -0.031
1578227615.025 -0.544 0.355 10.158 -0.092 0.122 0.031
1578227615.058 -0.489 0.372 10.105 -0.092 0.122 0.031
1578227615.063 -0.489 0.372 10.105 -0.122 0.122 -0.153
1578227615.095 -0.585 0.340 10.089 -0.122 0.122 -0.153
1578227615.100 -0.585 0.340 10.089 -0.275 0.061 0.061
1578227615.137 -0.468 0.364 10.211 -0.275 0.061 0.061
1578227615.144 -0.468 0.364 10.211 -0.214 0.122 0.000
1578227615.173 -0.520 0.388 10.172 -0.214 0.122 0.000
1578227615.179 -0.520 0.388 10.172 -0.092 0.183 0.031
1578227615.215 -0.561 0.352 10.125 -0.092 0.183 0.031
1578227615.225 -0.561 0.352 10.125 -0.153 0.183 -0.031
1578227615.254 -0.532 0.352 10.175 -0.153 0.183 -0.031
1578227615.259 -0.532 0.352 10.175 -0.122 0.122 -0.214
1578227615.296 -0.578 0.391 10.105 -0.122 0.122 -0.214
1578227615.301 -0.578 0.391 10.105 -0.244 0.214 0.000
1578227615.336 -0.547 0.304 10.086 -0.244 0.214 0.000
1578227615.343 -0.547 0.304 10.086 0.153 0.092 -0.031
1578227615.375 -0.554 0.398 10.081 0.153 0.092 -0.031
1578227615.382 -0.554 0.398 10.081 -0.214 0.153 0.000
1578227615.415 -0.515 0.367 10.103 -0.214 0.153 0.000
1578227615.422 -0.515 0.367 10.103 -0.122 0.183 -0.061
1578227615.456 -0.602 0.360 10.033 -0.122 0.183 -0.061
1578227615.462 -0.602 0.360 10.033 -0.122 0.061 -0.183
1578227615.496 -0.559 0.400 10.091 -0.122 0.061 -0.183
1578227615.502 -0.559 0.400 10.091 -0.031 0.214 -0.153
1578227615.531 -0.549 0.379 10.328 -0.031 0.214 -0.153
1578227615.541 -0.549 0.379 10.328 -0.153 0.336 0.031
1578227615.576 -0.508 0.432 10.117 -0.153 0.336 0.031
1578227615.582 -0.508 0.432 10.117 -0.244 0.000 0.153
1578227615.612 -0.518 0.381 10.122 -0.244 0.000 0.153
1578227615.617 -0.518 0.381 10.122 -0.153 -0.153 -0.122
1578227615.656 -0.575 0.410 10.201 -0.153 -0.153 -0.122
1578227615.662 -0.575 0.410 10.201 0.000 0.183 -0.092
1578227615.691 -0.494 0.333 10.187 0.000 0.183 -0.092
1578227615.698 -0.494 0.333 10.187 -0.122 0.275 -0.031
1578227615.731 -0.503 0.372 10.064 -0.122 0.275 -0.031
1578227615.741 -0.503 0.372 10.064 0.000 0.183 0.061
1578227615.773 -0.494 0.374 10.108 0.000 0.183 0.061
1578227615.777 -0.494 0.374 10.108 -0.153 0.214 0.122
1578227615.812 -0.590 0.376 10.101 -0.153 0.214 0.122
1578227615.818 -0.590 0.376 10.101 -0.183 -0.092 -0.214
1578227615.853 -0.563 0.432 10.122 -0.183 -0.092 -0.214
1578227615.858 -0.563 0.432 10.122 -0.183 0.183 -0.061
1578227615.892 -0.482 0.367 10.067 -0.183 0.183 -0.061
1578227615.897 -0.482 0.367 10.067 0.061 0.122 -0.031
1578227615.932 -0.592 0.434 10.180 0.061 0.122 -0.031
1578227615.938 -0.592 0.434 10.180 0.000 0.244 -0.031
1578227615.971 -0.578 0.400 10.084 0.000 0.244 -0.031
1578227615.978 -0.578 0.400 10.084 -0.122 0.244 -0.122
1578227616.011 -0.592 0.333 10.196 -0.122 0.244 -0.122
1578227616.018 -0.592 0.333 10.196 -0.122 0.122 -0.031
1578227616.048 -0.549 0.350 10.096 -0.122 0.122 -0.031
1578227616.058 -0.549 0.350 10.096 -0.214 -0.153 0.153
1578227616.091 -0.539 0.429 10.160 -0.214 -0.153 0.153
1578227616.098 -0.539 0.429 10.160 -0.244 0.031 0.000
1578227616.128 -0.611 0.372 10.074 -0.244 0.031 0.000
1578227616.134 -0.611 0.372 10.074 -0.031 0.122 -0.122
1578227616.172 -0.479 0.393 10.144 -0.031 0.122 -0.122
1578227616.177 -0.479 0.393 10.144 -0.275 0.000 -0.031
1578227616.209 -0.542 0.364 10.105 -0.275 0.000 -0.031
1578227616.213 -0.542 0.364 10.105 -0.244 0.000 0.183
1578227616.248 -0.568 0.400 10.074 -0.244 0.000 0.183
1578227616.258 -0.568 0.400 10.074 -0.153 0.397 -0.031
1578227616.292 -0.472 0.429 10.187 -0.153 0.397 -0.031
1578227616.297 -0.472 0.429 10.187 -0.183 0.336 0.000
1578227616.331 -0.590 0.350 10.017 -0.183 0.336 0.000
1578227616.341 -0.590 0.350 10.017 -0.244 0.183 0.000
1578227616.371 -0.513 0.369 10.170 -0.244 0.183 0.000
1578227616.377 -0.513 0.369 10.170 -0.183 0.092 0.092
1578227616.411 -0.513 0.376 10.156 -0.183 0.092 0.092
1578227616.417 -0.513 0.376 10.156 -0.031 0.061 -0.061
1578227616.451 -0.604 0.379 10.153 -0.031 0.061 -0.061
1578227616.457 -0.604 0.379 10.153 -0.214 0.183 0.061
1578227616.493 -0.539 0.391 10.084 -0.214 0.183 0.061
1578227616.496 -0.539 0.391 10.084 -0.244 0.214 -0.031
1578227616.531 -0.527 0.369 10.091 -0.244 0.214 -0.031
1578227616.537 -0.527 0.369 10.091 -0.244 0.061 -0.122
1578227616.570 -0.587 0.340 10.103 -0.244 0.061 -0.122
1578227616.577 -0.587 0.340 10.103 0.000 0.397 -0.031
1578227616.609 -0.511 0.328 10.098 0.000 0.397 -0.031
1578227616.617 -0.511 0.328 10.098 -0.153 0.061 -0.031
1578227616.646 -0.530 0.372 10.101 -0.153 0.061 -0.031
1578227616.657 -0.530 0.372 10.101 -0.153 0.214 0.000
1578227616.692 -0.549 0.343 10.117 -0.153 0.214 0.000
1578227616.695 -0.549 0.343 10.117 -0.122 0.214 -0.031
1578227616.727 -0.539 0.326 10.093 -0.122 0.214 -0.031
1578227616.733 -0.539 0.326 10.093 -0.092 0.214 0.031
1578227616.770 -0.551 0.372 10.043 -0.092 0.214 0.031
1578227616.777 -0.551 0.372 10.043 -0.275 0.183 0.000
1578227616.806 -0.506 0.417 10.055 -0.275 0.183 0.000
1578227616.812 -0.506 0.417 10.055 -0.275 0.122 0.000
1578227616.848 -0.525 0.393 10.062 -0.275 0.122 0.000
1578227616.857 -0.525 0.393 10.062 -0.183 0.000 0.061
1578227616.888 -0.547 0.345 10.067 -0.183 0.000 0.061
1578227616.894 -0.547 0.345 10.067 0.061 0.214 -0.061
1578227616.926 -0.585 0.386 10.113 0.061 0.214 -0.061
1578227616.933 -0.585 0.386 10.113 -0.183 0.183 0.031
1578227616.966 -0.599 0.364 10.182 -0.183 0.183 0.031
1578227616.973 -0.599 0.364 10.182 -0.122 0.305 -0.061
1578227617.007 -0.468 0.364 10.043 -0.122 0.305 -0.061
1578227617.012 -0.468 0.364 10.043 -0.183 0.153 -0.031
1578227617.046 -0.544 0.422 10.096 -0.183 0.153 -0.031
1578227617.054 -0.544 0.422 10.096 -0.275 -0.061 -0.122
1578227617.087 -0.513 0.398 10.170 -0.275 -0.061 -0.122
1578227617.092 -0.513 0.398 10.170 -0.183 0.031 0.061
1578227617.127 -0.542 0.420 10.086 -0.183 0.031 0.061
1578227617.133 -0.542 0.420 10.086 -0.244 0.427 -0.031
1578227617.162 -0.571 0.386 10.053 -0.244 0.427 -0.031
1578227617.172 -0.571 0.386 10.053 -0.214 0.244 0.092
1578227617.207 -0.494 0.369 10.160 -0.214 0.244 0.092
1578227617.213 -0.494 0.369 10.160 -0.183 0.092 0.061
1578227617.242 -0.549 0.372 10.072 -0.183 0.092 0.061
1578227617.249 -0.549 0.372 10.072 -0.092 0.061 -0.244
1578227617.292 -0.575 0.386 10.163 -0.092 0.061 -0.244
1578227617.297 -0.575 0.386 10.163 -0.214 0.031 0.000
1578227617.327 -0.554 0.372 10.045 -0.214 0.031 0.000
1578227617.332 -0.554 0.372 10.045 -0.122 0.061 -0.031
1578227617.371 -0.515 0.364 10.137 -0.122 0.061 -0.031
1578227617.377 -0.515 0.364 10.137 -0.275 0.153 -0.031
1578227617.406 -0.506 0.415 10.122 -0.275 0.153 -0.031
1578227617.413 -0.506 0.415 10.122 -0.122 0.305 0.000
1578227617.447 -0.503 0.343 10.062 -0.122 0.305 0.000
1578227617.457 -0.503 0.343 10.062 -0.061 0.183 -0.061
1578227617.488 -0.544 0.384 10.110 -0.061 0.183 -0.061
1578227617.492 -0.544 0.384 10.110 -0.153 0.092 -0.031
1578227617.527 -0.568 0.374 10.091 -0.153 0.092 -0.031
1578227617.532 -0.568 0.374 10.091 -0.122 0.122 0.000
1578227617.566 -0.487 0.393 10.110 -0.122 0.122 0.000
1578227617.572 -0.487 0.393 10.110 -0.061 0.122 -0.031
1578227617.606 -0.482 0.369 10.139 -0.061 0.122 -0.031
1578227617.615 -0.482 0.369 10.139 -0.214 0.275 0.000
1578227617.654 -0.535 0.391 10.053 -0.214 0.275 0.000
1578227617.656 -0.535 0.391 10.053 -0.183 0.214 0.122
1578227617.731 -0.506 0.345 10.237 -0.183 0.214 0.122
1578227617.734 -0.506 0.345 10.237 -0.183 0.214 -0.092
1578227617.748 -0.494 0.458 10.125 -0.183 0.214 -0.092
1578227617.751 -0.494 0.458 10.125 -0.214 0.183 0.153
1578227617.771 -0.559 0.360 10.187 -0.214 0.183 0.153
1578227617.777 -0.559 0.360 10.187 -0.305 0.183 0.031
1578227617.811 -0.542 0.372 10.120 -0.305 0.183 0.031
1578227617.817 -0.542 0.372 10.120 -0.122 0.275 -0.092
1578227617.847 -0.561 0.400 10.026 -0.122 0.275 -0.092
1578227617.857 -0.561 0.400 10.026 -0.153 0.214 0.000
1578227617.891 -0.566 0.369 10.096 -0.153 0.214 0.000
1578227617.897 -0.566 0.369 10.096 -0.031 0.092 0.031
1578227617.928 -0.614 0.386 10.103 -0.031 0.092 0.031
1578227617.933 -0.614 0.386 10.103 -0.061 0.275 0.092
1578227617.971 -0.595 0.283 10.050 -0.061 0.275 0.092
1578227617.978 -0.595 0.283 10.050 -0.061 0.275 -0.031
1578227618.008 -0.547 0.398 10.041 -0.061 0.275 -0.031
1578227618.014 -0.547 0.398 10.041 -0.183 0.122 -0.031
1578227618.047 -0.549 0.360 10.228 -0.183 0.122 -0.031
1578227618.057 -0.549 0.360 10.228 -0.214 0.092 -0.031
1578227618.088 -0.520 0.340 10.139 -0.214 0.092 -0.031
1578227618.092 -0.520 0.340 10.139 -0.153 0.275 0.031
1578227618.127 -0.549 0.381 10.137 -0.153 0.275 0.031
1578227618.133 -0.549 0.381 10.137 -0.214 0.092 -0.153
1578227618.167 -0.530 0.381 10.098 -0.214 0.092 -0.153
1578227618.174 -0.530 0.381 10.098 -0.122 0.183 0.061
1578227618.207 -0.578 0.350 10.132 -0.122 0.183 0.061
1578227618.213 -0.578 0.350 10.132 -0.122 0.305 -0.092
1578227618.248 -0.535 0.376 10.168 -0.122 0.305 -0.092
1578227618.253 -0.535 0.376 10.168 -0.366 0.275 -0.092
1578227618.291 -0.563 0.340 10.014 -0.366 0.275 -0.092
1578227618.297 -0.563 0.340 10.014 -0.214 0.336 -0.061
1578227618.330 -0.587 0.360 10.213 -0.214 0.336 -0.061
1578227618.336 -0.587 0.360 10.213 -0.153 0.153 -0.214
1578227618.371 -0.650 0.453 10.160 -0.153 0.153 -0.214
1578227618.377 -0.650 0.453 10.160 -0.122 0.092 -0.061
1578227618.412 -0.520 0.316 10.036 -0.122 0.092 -0.061
1578227618.417 -0.520 0.316 10.036 -0.183 0.153 0.092
1578227618.447 -0.573 0.417 10.129 -0.183 0.153 0.092
1578227618.459 -0.573 0.417 10.129 -0.031 0.153 0.031
1578227618.491 -0.563 0.369 10.137 -0.031 0.153 0.031
1578227618.498 -0.563 0.369 10.137 -0.122 0.061 0.000
1578227618.528 -0.633 0.328 10.079 -0.122 0.061 0.000
1578227618.534 -0.633 0.328 10.079 -0.092 0.061 0.061
1578227618.571 -0.549 0.355 10.139 -0.092 0.061 0.061
1578227618.577 -0.549 0.355 10.139 -0.214 0.122 -0.092
1578227618.608 -0.530 0.398 10.146 -0.214 0.122 -0.092
1578227618.613 -0.530 0.398 10.146 -0.244 0.153 -0.092
1578227618.647 -0.506 0.379 10.115 -0.244 0.153 -0.092
1578227618.661 -0.506 0.379 10.115 -0.214 0.122 0.000
1578227618.687 -0.477 0.369 10.117 -0.214 0.122 0.000
1578227618.694 -0.477 0.369 10.117 -0.031 0.183 -0.153
1578227618.729 -0.568 0.448 10.093 -0.031 0.183 -0.153
1578227618.733 -0.568 0.448 10.093 -0.275 0.153 0.061
1578227618.767 -0.621 0.400 10.415 -0.275 0.153 0.061
1578227618.774 -0.621 0.400 10.415 0.000 0.427 -0.122
1578227618.807 -0.429 0.527 10.048 0.000 0.427 -0.122
1578227618.813 -0.429 0.527 10.048 0.214 0.305 -0.244
1578227618.848 -0.659 0.609 9.887 0.214 0.305 -0.244
1578227618.854 -0.659 0.609 9.887 -0.183 0.214 -0.061
1578227618.887 -0.597 0.360 9.933 -0.183 0.214 -0.061
1578227618.894 -0.597 0.360 9.933 -0.305 0.214 0.000
1578227618.928 -0.523 0.458 10.098 -0.305 0.214 0.000
1578227618.934 -0.523 0.458 10.098 -0.031 0.031 0.000
1578227618.963 -0.563 0.288 10.175 -0.031 0.031 0.000
1578227618.974 -0.563 0.288 10.175 0.031 0.122 0.183
1578227619.008 -0.499 0.357 10.057 0.031 0.122 0.183
1578227619.013 -0.499 0.357 10.057 -0.061 0.183 0.153
1578227619.043 -0.590 0.338 10.076 -0.061 0.183 0.153
1578227619.049 -0.590 0.338 10.076 -0.061 0.183 0.000
1578227619.088 -0.527 0.388 10.204 -0.061 0.183 0.000
1578227619.094 -0.527 0.388 10.204 0.000 0.092 0.000
1578227619.123 -0.518 0.391 10.029 0.000 0.092 0.000
1578227619.129 -0.518 0.391 10.029 0.031 0.153 0.000
1578227619.164 -0.482 0.281 10.086 0.031 0.153 0.000
1578227619.172 -0.482 0.281 10.086 -0.336 0.061 -0.092
1578227619.204 -0.539 0.338 10.211 -0.336 0.061 -0.092
1578227619.210 -0.539 0.338 10.211 -0.244 0.153 -0.122
1578227619.243 -0.571 0.427 10.067 -0.244 0.153 -0.122
1578227619.250 -0.571 0.427 10.067 -0.092 0.305 0.000
1578227619.287 -0.537 0.420 10.043 -0.092 0.305 0.000
1578227619.292 -0.537 0.420 10.043 -0.122 0.061 -0.092
1578227619.326 -0.523 0.429 10.153 -0.122 0.061 -0.092
1578227619.333 -0.523 0.429 10.153 -0.122 0.000 -0.061
1578227619.370 -0.575 0.424 10.137 -0.122 0.000 -0.061
1578227619.376 -0.575 0.424 10.137 -0.153 0.122 -0.153
1578227619.410 -0.503 0.324 10.458 -0.153 0.122 -0.153
1578227619.417 -0.503 0.324 10.458 0.275 0.549 0.671
1578227619.450 -0.117 0.314 10.187 0.275 0.549 0.671
1578227619.457 -0.117 0.314 10.187 -0.244 1.099 0.610
1578227619.490 0.532 0.125 10.093 -0.244 1.099 0.610
1578227619.496 0.532 0.125 10.093 1.434 -2.441 0.549
1578227619.530 0.381 0.105 8.595 1.434 -2.441 0.549
1578227619.537 0.381 0.105 8.595 0.641 -2.563 1.648
1578227619.570 0.182 0.367 9.830 0.641 -2.563 1.648
1578227619.577 0.182 0.367 9.830 1.312 -3.387 -4.028
1578227619.609 -0.420 0.096 9.281 1.312 -3.387 -4.028
1578227619.616 -0.420 0.096 9.281 0.031 -0.153 5.646
1578227619.647 0.098 1.530 9.662 0.031 -0.153 5.646
1578227619.655 0.098 1.530 9.662 -2.930 -3.937 4.181
1578227619.690 -0.420 0.479 8.943 -2.930 -3.937 4.181
1578227619.697 -0.420 0.479 8.943 -2.167 -0.031 -2.167
1578227619.726 0.194 -0.930 10.810 -2.167 -0.031 -2.167
1578227619.733 0.194 -0.930 10.810 0.214 -4.608 -1.556
1578227619.772 -1.122 -0.724 10.288 0.214 -4.608 -1.556
1578227619.776 -1.122 -0.724 10.288 3.265 0.549 -1.831
1578227619.807 -0.451 0.043 8.676 3.265 0.549 -1.831
1578227619.812 -0.451 0.043 8.676 -4.913 -3.265 2.655
1578227619.848 0.134 1.961 9.542 -4.913 -3.265 2.655
1578227619.857 0.134 1.961 9.542 -3.296 -3.693 0.793
1578227619.886 -1.247 0.693 9.671 -3.296 -3.693 0.793
1578227619.895 -1.247 0.693 9.671 -0.427 2.747 2.594
1578227619.928 -1.688 -0.774 12.356 -0.427 2.747 2.594
1578227619.934 -1.688 -0.774 12.356 -1.770 1.495 1.221
1578227619.966 -1.719 -1.599 12.431 -1.770 1.495 1.221
1578227619.972 -1.719 -1.599 12.431 9.216 7.935 -0.336
1578227620.008 -1.952 -1.688 11.647 9.216 7.935 -0.336
1578227620.012 -1.952 -1.688 11.647 7.965 -1.923 4.761
1578227620.046 -0.218 1.628 8.542 7.965 -1.923 4.761
1578227620.054 -0.218 1.628 8.542 -5.280 2.167 0.916
1578227620.087 1.606 1.391 8.820 -5.280 2.167 0.916
1578227620.093 1.606 1.391 8.820 0.641 -4.883 -4.761
1578227620.126 0.319 1.777 10.033 0.641 -4.883 -4.761
1578227620.133 0.319 1.777 10.033 1.617 -5.615 -5.066
1578227620.162 -0.403 -1.894 12.117 1.617 -5.615 -5.066
1578227620.172 -0.403 -1.894 12.117 -4.272 -2.808 -6.226
1578227620.207 -1.983 -0.981 12.776 -4.272 -2.808 -6.226
1578227620.213 -1.983 -0.981 12.776 0.183 -9.552 -2.075
1578227620.242 -1.105 1.990 8.199 0.183 -9.552 -2.075
1578227620.249 -1.105 1.990 8.199 3.021 -3.357 -1.862
1578227620.289 -1.117 0.434 10.904 3.021 -3.357 -1.862
1578227620.293 -1.117 0.434 10.904 -3.784 -0.366 0.214
1578227620.323 1.194 0.873 9.796 -3.784 -0.366 0.214
1578227620.329 1.194 0.873 9.796 -5.463 -4.517 3.510
1578227620.363 -3.297 0.779 8.540 -5.463 -4.517 3.510
1578227620.372 -3.297 0.779 8.540 -4.272 -4.089 -2.502
1578227620.403 -1.064 -2.326 11.592 -4.272 -4.089 -2.502
1578227620.410 -1.064 -2.326 11.592 -5.493 -1.862 -5.707
1578227620.444 -1.527 -2.249 13.138 -5.493 -1.862 -5.707
1578227620.450 -1.527 -2.249 13.138 -0.671 -4.852 8.514
1578227620.485 -0.669 2.127 8.024 -0.671 -4.852 8.514
1578227620.491 -0.669 2.127 8.024 1.129 3.326 4.242
1578227620.523 -0.321 1.148 8.228 1.129 3.326 4.242
1578227620.529 -0.321 1.148 8.228 -5.127 0.885 -1.678
1578227620.563 0.058 0.820 10.652 -5.127 0.885 -1.678
1578227620.570 0.058 0.820 10.652 -1.282 -4.333 0.580
1578227620.603 -1.892 -0.300 11.359 -1.282 -4.333 0.580
1578227620.610 -1.892 -0.300 11.359 3.082 -0.549 -8.575
1578227620.644 -0.206 -2.539 13.107 3.082 -0.549 -8.575
1578227620.649 -0.206 -2.539 13.107 -3.021 -2.289 -3.204
1578227620.679 -0.331 1.374 10.388 -3.021 -2.289 -3.204
1578227620.690 -0.331 1.374 10.388 -6.409 -0.854 5.280
1578227620.724 -1.532 1.726 9.659 -6.409 -0.854 5.280
1578227620.730 -1.532 1.726 9.659 -1.953 5.127 1.801
1578227620.759 -1.165 0.535 11.417 -1.953 5.127 1.801
1578227620.765 -1.165 0.535 11.417 2.594 -3.754 -5.249
1578227620.804 2.282 3.397 7.744 2.594 -3.754 -5.249
1578227620.809 2.282 3.397 7.744 -4.761 2.350 6.622
1578227620.839 -1.019 1.870 11.620 -4.761 2.350 6.622
1578227620.845 -1.019 1.870 11.620 0.854 2.228 -5.096
1578227620.878 -1.139 -1.299 10.101 0.854 2.228 -5.096
1578227620.890 -1.139 -1.299 10.101 6.134 0.366 -2.014
1578227620.920 -1.649 -0.362 11.858 6.134 0.366 -2.014
1578227620.926 -1.649 -0.362 11.858 -5.371 -1.953 -0.214
1578227620.963 -0.798 -0.213 11.740 -5.371 -1.953 -0.214
1578227620.966 -0.798 -0.213 11.740 -4.242 3.296 1.129
1578227621.000 -0.233 -2.731 12.625 -4.242 3.296 1.129
1578227621.005 -0.233 -2.731 12.625 9.552 -6.195 -2.228
1578227621.040 -0.422 -0.113 9.614 9.552 -6.195 -2.228
1578227621.049 -0.422 -0.113 9.614 2.289 1.740 -2.747
1578227621.079 -1.839 0.875 11.875 2.289 1.740 -2.747
1578227621.086 -1.839 0.875 11.875 -4.822 4.486 2.869
1578227621.120 -0.086 -0.257 9.878 -4.822 4.486 2.869
1578227621.125 -0.086 -0.257 9.878 0.488 -1.190 -0.793
1578227621.160 -1.045 0.163 9.590 0.488 -1.190 -0.793
1578227621.164 -1.045 0.163 9.590 3.387 2.228 -2.380
1578227621.195 0.345 1.642 12.709 3.387 2.228 -2.380
1578227621.206 0.345 1.642 12.709 -14.740 1.709 8.881
1578227621.239 -0.273 3.057 6.490 -14.740 1.709 8.881
1578227621.245 -0.273 3.057 6.490 1.648 5.188 3.937
1578227621.274 -0.794 0.007 9.484 1.648 5.188 3.937
1578227621.281 -0.794 0.007 9.484 6.470 7.355 -3.510
1578227621.321 -1.681 -0.832 12.596 6.470 7.355 -3.510
1578227621.328 -1.681 -0.832 12.596 0.214 -2.289 0.366
1578227621.359 -1.359 -1.033 10.829 0.214 -2.289 0.366
1578227621.365 -1.359 -1.033 10.829 7.782 2.289 5.463
1578227621.397 -0.717 2.402 7.576 7.782 2.289 5.463
1578227621.407 -0.717 2.402 7.576 7.904 4.608 2.136
1578227621.437 0.386 1.901 7.260 7.904 4.608 2.136
1578227621.444 0.386 1.901 7.260 -3.540 -2.350 4.578
1578227621.476 -0.026 1.812 10.470 -3.540 -2.350 4.578
1578227621.483 -0.026 1.812 10.470 3.113 1.343 -4.547
1578227621.519 -1.630 -0.424 11.673 3.113 1.343 -4.547
1578227621.525 -1.630 -0.424 11.673 5.402 4.852 -3.052
1578227621.558 -1.527 0.839 11.625 5.402 4.852 -3.052
1578227621.564 -1.527 0.839 11.625 -4.913 -1.801 4.517
1578227621.598 -0.010 0.055 10.101 -4.913 -1.801 4.517
1578227621.603 -0.010 0.055 10.101 5.035 1.251 -0.793
1578227621.640 0.113 1.376 9.300 5.035 1.251 -0.793
1578227621.643 0.113 1.376 9.300 10.742 -4.150 -11.017
1578227621.679 -1.069 0.669 9.679 10.742 -4.150 -11.017
1578227621.684 -1.069 0.669 9.679 -7.629 -1.526 -4.700
1578227621.714 0.034 -0.225 11.129 -7.629 -1.526 -4.700
1578227621.725 0.034 -0.225 11.129 0.763 0.916 -2.563
1578227621.758 -1.007 -0.053 10.273 0.763 0.916 -2.563
1578227621.764 -1.007 -0.053 10.273 -1.099 -0.305 4.425
1578227621.793 -0.599 1.398 10.990 -1.099 -0.305 4.425
1578227621.800 -0.599 1.398 10.990 -2.899 -1.129 0.702
1578227621.837 -2.280 -0.889 13.812 -2.899 -1.129 0.702
1578227621.843 -2.280 -0.889 13.812 9.033 1.801 -6.287
1578227621.873 -0.827 1.096 9.523 9.033 1.801 -6.287
1578227621.880 -0.827 1.096 9.523 0.122 1.282 2.228
1578227621.913 -0.666 0.077 10.009 0.122 1.282 2.228
1578227621.923 -0.666 0.077 10.009 -11.108 -0.916 3.357
1578227621.953 -0.281 0.818 9.882 -11.108 -0.916 3.357
1578227621.959 -0.281 0.818 9.882 6.927 6.348 -1.862
1578227621.994 0.158 0.758 10.853 6.927 6.348 -1.862
1578227621.998 0.158 0.758 10.853 -2.991 -3.296 -1.160
1578227622.032 -0.616 0.892 11.426 -2.991 -3.296 -1.160
1578227622.039 -0.616 0.892 11.426 -0.580 -0.702 1.495
1578227622.072 -0.269 1.180 9.197 -0.580 -0.702 1.495
1578227622.079 -0.269 1.180 9.197 8.759 4.242 -4.761
1578227622.114 -2.700 0.189 9.549 8.759 4.242 -4.761
1578227622.119 -2.700 0.189 9.549 10.010 -7.111 -6.226
1578227622.154 -0.887 -0.477 9.983 10.010 -7.111 -6.226
1578227622.159 -0.887 -0.477 9.983 5.920 8.148 -4.822
1578227622.193 0.808 -1.904 9.607 5.920 8.148 -4.822
1578227622.199 0.808 -1.904 9.607 5.768 -4.059 -2.045
1578227622.228 -0.515 2.596 7.847 5.768 -4.059 -2.045
1578227622.239 -0.515 2.596 7.847 1.923 0.854 4.730
1578227622.273 -0.873 0.094 11.661 1.923 0.854 4.730
1578227622.278 -0.873 0.094 11.661 0.427 2.899 2.197
1578227622.313 -1.213 -0.300 8.820 0.427 2.899 2.197
1578227622.319 -1.213 -0.300 8.820 -0.854 -0.763 5.768
1578227622.353 -1.170 1.434 8.422 -0.854 -0.763 5.768
1578227622.362 -1.170 1.434 8.422 -6.348 -1.587 1.312
1578227622.392 -1.983 -0.726 11.817 -6.348 -1.587 1.312
1578227622.398 -1.983 -0.726 11.817 3.174 0.275 -8.881
1578227622.431 -0.650 -1.165 11.141 3.174 0.275 -8.881
1578227622.438 -0.650 -1.165 11.141 5.035 0.946 0.397
1578227622.473 -0.921 -1.017 9.489 5.035 0.946 0.397
1578227622.478 -0.921 -1.017 9.489 4.425 2.808 7.660
1578227622.513 -0.053 1.482 9.067 4.425 2.808 7.660
1578227622.518 -0.053 1.482 9.067 -1.709 1.709 0.397
1578227622.553 1.048 2.839 7.200 -1.709 1.709 0.397
1578227622.559 1.048 2.839 7.200 0.854 2.411 3.723
1578227622.591 0.125 1.403 8.873 0.854 2.411 3.723
1578227622.598 0.125 1.403 8.873 -0.458 0.458 -0.153
1578227622.632 -1.381 -0.153 11.606 -0.458 0.458 -0.153
1578227622.638 -1.381 -0.153 11.606 4.211 -1.373 -3.998
1578227622.668 -0.873 1.472 9.077 4.211 -1.373 -3.998
1578227622.677 -0.873 1.472 9.077 1.221 6.775 6.744
1578227622.713 -1.623 -0.408 10.513 1.221 6.775 6.744
1578227622.719 -1.623 -0.408 10.513 0.610 3.723 8.362
1578227622.748 0.314 2.980 5.804 0.610 3.723 8.362
1578227622.755 0.314 2.980 5.804 -0.977 -1.617 -6.317
1578227622.796 -1.561 0.686 10.956 -0.977 -1.617 -6.317
1578227622.802 -1.561 0.686 10.956 -6.714 -1.801 7.660
1578227622.836 -1.860 1.371 10.055 -6.714 -1.801 7.660
1578227622.842 -1.860 1.371 10.055 2.716 3.265 -3.143
1578227622.878 -1.105 0.120 9.302 2.716 3.265 -3.143
1578227622.885 -1.105 0.120 9.302 0.793 -1.587 0.702
1578227622.915 -1.112 0.259 11.141 0.793 -1.587 0.702
1578227622.921 -1.112 0.259 11.141 1.373 -2.411 0.671
1578227622.956 -2.112 0.376 9.736 1.373 -2.411 0.671
1578227622.966 -2.112 0.376 9.736 -0.519 6.622 -0.244
1578227622.995 -1.954 -0.408 9.604 -0.519 6.622 -0.244
1578227623.002 -1.954 -0.408 9.604 0.183 -2.686 4.272
1578227623.034 -1.017 0.815 9.436 0.183 -2.686 4.272
1578227623.041 -1.017 0.815 9.436 0.519 1.556 -1.404
1578227623.076 -1.005 0.029 9.890 0.519 1.556 -1.404
1578227623.081 -1.005 0.029 9.890 1.099 1.099 0.366
1578227623.144 -0.417 0.758 9.993 1.099 1.099 0.366
1578227623.147 -0.417 0.758 9.993 -0.244 0.702 0.000
1578227623.193 -0.527 0.072 10.036 -0.244 0.702 0.000
1578227623.196 -0.527 0.072 10.036 0.336 0.000 -0.214
1578227623.209 -0.568 0.640 10.079 0.336 0.000 -0.214
1578227623.212 -0.568 0.640 10.079 0.031 -0.275 -0.610
1578227623.237 -0.640 0.165 10.050 0.031 -0.275 -0.610
1578227623.240 -0.640 0.165 10.050 0.061 0.397 0.366
1578227623.271 -0.520 0.324 10.060 0.061 0.397 0.366
1578227623.282 -0.520 0.324 10.060 0.092 0.275 -0.031
1578227623.316 -0.547 0.326 10.062 0.092 0.275 -0.031
1578227623.323 -0.547 0.326 10.062 0.061 -0.061 -0.397
1578227623.352 -0.640 0.302 10.076 0.061 -0.061 -0.397
1578227623.359 -0.640 0.302 10.076 0.305 0.122 0.153
1578227623.396 -0.523 0.237 10.175 0.305 0.122 0.153
1578227623.401 -0.523 0.237 10.175 0.000 0.336 0.061
1578227623.432 -0.547 0.386 10.110 0.000 0.336 0.061
1578227623.438 -0.547 0.386 10.110 0.000 0.061 -0.214
1578227623.472 -0.604 0.345 10.127 0.000 0.061 -0.214
1578227623.483 -0.604 0.345 10.127 -0.031 0.244 0.153
1578227623.512 -0.587 0.345 10.103 -0.031 0.244 0.153
1578227623.518 -0.587 0.345 10.103 -0.061 0.244 -0.092
1578227623.554 -0.563 0.381 10.175 -0.061 0.244 -0.092
1578227623.558 -0.563 0.381 10.175 -0.122 0.214 -0.153
1578227623.592 -0.645 0.336 10.144 -0.122 0.214 -0.153
1578227623.599 -0.645 0.336 10.144 -0.061 0.122 -0.031
1578227623.681 -0.592 0.352 10.240 -0.061 0.122 -0.031
1578227623.684 -0.592 0.352 10.240 -0.183 0.305 0.122
1578227623.701 -0.544 0.331 10.115 -0.183 0.305 0.122
1578227623.704 -0.544 0.331 10.115 -0.092 0.214 0.000
1578227623.720 -0.592 0.309 10.146 -0.092 0.214 0.000
1578227623.723 -0.592 0.309 10.146 -0.305 0.092 -0.183
1578227623.753 -0.592 0.319 10.091 -0.305 0.092 -0.183
1578227623.758 -0.592 0.319 10.091 -0.183 0.305 0.092
1578227623.792 -0.619 0.348 10.122 -0.183 0.305 0.092
1578227623.808 -0.619 0.348 10.122 -0.092 0.122 0.000
1578227623.842 -0.621 0.295 10.072 -0.092 0.122 0.000
1578227623.891 -0.621 0.295 10.072 -0.214 0.275 0.000
1578227623.905 -0.501 0.357 9.923 -0.214 0.275 0.000
1578227623.909 -0.501 0.357 9.923 -0.732 0.580 0.977
1578227623.923 -0.129 -0.029 9.870 -0.732 0.580 0.977
1578227623.926 -0.129 -0.029 9.870 0.183 3.693 1.495
1578227623.953 -0.357 0.065 11.115 0.183 3.693 1.495
1578227623.958 -0.357 0.065 11.115 -1.007 0.214 -0.519
1578227623.996 0.307 0.820 11.122 -1.007 0.214 -0.519
1578227624.002 0.307 0.820 11.122 -2.411 5.493 -1.862
1578227624.033 -0.201 0.535 10.923 -2.411 5.493 -1.862
1578227624.038 -0.201 0.535 10.923 1.251 3.418 -5.920
1578227624.072 0.503 0.916 10.252 1.251 3.418 -5.920
1578227624.079 0.503 0.916 10.252 1.740 -1.678 -10.803
1578227624.111 -0.590 0.170 10.769 1.740 -1.678 -10.803
1578227624.119 -0.590 0.170 10.769 1.221 4.730 -9.644
1578227624.152 -0.647 -0.300 11.745 1.221 4.730 -9.644
1578227624.159 -0.647 -0.300 11.745 1.404 -4.822 -22.919
1578227624.193 -0.290 1.302 12.004 1.404 -4.822 -22.919
1578227624.197 -0.290 1.302 12.004 -8.698 3.723 -25.757
1578227624.229 -1.259 0.635 10.225 -8.698 3.723 -25.757
1578227624.233 -1.259 0.635 10.225 -1.160 4.181 -28.229
1578227624.324 -0.628 0.017 13.104 -1.160 4.181 -28.229
1578227624.326 -0.628 0.017 13.104 6.317 -0.458 -40.710
1578227624.339 -0.326 0.544 9.424 6.317 -0.458 -40.710
1578227624.342 -0.326 0.544 9.424 8.240 -1.282 -27.130
1578227624.362 0.662 0.678 7.852 8.240 -1.282 -27.130
1578227624.369 0.662 0.678 7.852 1.160 -3.174 -19.897
1578227624.397 -0.731 -0.110 10.175 1.160 -3.174 -19.897
1578227624.403 -0.731 -0.110 10.175 1.984 0.092 -27.069
1578227624.438 -1.606 0.302 10.117 1.984 0.092 -27.069
1578227624.448 -1.606 0.302 10.117 1.923 0.977 -15.869
1578227624.478 -1.930 -0.158 11.652 1.923 0.977 -15.869
1578227624.485 -1.930 -0.158 11.652 -1.648 -0.580 -11.383
1578227624.517 -2.532 -0.300 10.664 -1.648 -0.580 -11.383
1578227624.524 -2.532 -0.300 10.664 -0.610 1.801 -6.042
1578227624.559 -0.954 0.571 10.009 -0.610 1.801 -6.042
1578227624.564 -0.954 0.571 10.009 -0.519 2.899 4.883
1578227624.598 -0.444 0.237 10.220 -0.519 2.899 4.883
1578227624.602 -0.444 0.237 10.220 -0.610 1.556 2.930
1578227624.637 0.038 0.609 10.218 -0.610 1.556 2.930
1578227624.644 0.038 0.609 10.218 -0.214 -0.488 -1.282
1578227624.678 -0.585 0.348 10.000 -0.214 -0.488 -1.282
1578227624.683 -0.585 0.348 10.000 -0.732 -0.671 1.984
1578227624.717 -1.041 0.218 10.333 -0.732 -0.671 1.984
1578227624.724 -1.041 0.218 10.333 -0.214 0.671 -1.251
1578227624.754 -0.489 0.575 10.038 -0.214 0.671 -1.251
1578227624.763 -0.489 0.575 10.038 -0.580 1.068 -0.061
1578227624.797 -0.379 0.070 10.014 -0.580 1.068 -0.061
1578227624.803 -0.379 0.070 10.014 0.000 -0.641 0.610
1578227624.833 -0.616 0.496 10.029 0.000 -0.641 0.610
1578227624.839 -0.616 0.496 10.029 -0.153 -0.427 0.031
1578227624.879 -0.631 0.235 10.101 -0.153 -0.427 0.031
1578227624.883 -0.631 0.235 10.101 -0.397 0.946 0.458
1578227624.914 -0.352 0.348 10.146 -0.397 0.946 0.458
1578227624.921 -0.352 0.348 10.146 -0.092 0.214 -0.702
1578227624.953 -0.475 0.360 10.096 -0.092 0.214 -0.702
1578227624.963 -0.475 0.360 10.096 -0.214 -0.183 0.519
1578227624.992 -0.669 0.283 10.182 -0.214 -0.183 0.519
1578227624.999 -0.669 0.283 10.182 -0.092 0.366 -0.336
1578227625.033 -0.475 0.456 10.218 -0.092 0.366 -0.336
1578227625.039 -0.475 0.456 10.218 -0.366 0.366 -0.397
1578227625.073 -0.446 0.266 10.129 -0.366 0.366 -0.397
1578227625.080 -0.446 0.266 10.129 0.000 0.092 0.275
1578227625.149 -0.633 0.340 10.134 0.000 0.092 0.275
1578227625.152 -0.633 0.340 10.134 -0.305 0.122 -0.458
1578227625.166 -0.499 0.376 10.113 -0.305 0.122 -0.458
1578227625.169 -0.499 0.376 10.113 -0.031 0.275 0.061
1578227625.193 -0.561 0.362 10.076 -0.031 0.275 0.061
1578227625.200 -0.561 0.362 10.076 -0.153 0.061 0.122
1578227625.234 -0.575 0.357 10.050 -0.153 0.061 0.122
1578227625.240 -0.575 0.357 10.050 -0.031 0.092 -0.092
1578227625.272 -0.595 0.252 10.101 -0.031 0.092 -0.092
1578227625.293 -0.595 0.252 10.101 -0.183 0.275 0.061
1578227625.343 -0.539 0.312 10.129 -0.183 0.275 0.061
1578227625.348 -0.539 0.312 10.129 -0.244 0.183 0.092
1578227625.395 -0.964 0.458 10.494 -0.244 0.183 0.092
1578227625.397 -0.964 0.458 10.494 1.709 1.984 2.014
1578227625.412 -0.173 0.599 10.736 1.709 1.984 2.014
1578227625.417 -0.173 0.599 10.736 -2.289 0.183 2.167
1578227625.437 0.427 1.072 9.825 -2.289 0.183 2.167
1578227625.441 0.427 1.072 9.825 -1.892 0.427 -5.432
1578227625.476 0.101 0.736 9.880 -1.892 0.427 -5.432
1578227625.482 0.101 0.736 9.880 -1.007 1.343 -6.378
1578227625.515 0.604 0.633 9.784 -1.007 1.343 -6.378
1578227625.522 0.604 0.633 9.784 -0.092 1.984 -11.597
1578227625.555 0.599 0.652 10.966 -0.092 1.984 -11.597
1578227625.562 0.599 0.652 10.966 -4.181 -0.275 -19.348
1578227625.596 -0.441 0.180 10.582 -4.181 -0.275 -19.348
1578227625.600 -0.441 0.180 10.582 -2.838 -0.397 -25.452
1578227625.631 -0.360 1.537 7.909 -2.838 -0.397 -25.452
1578227625.636 -0.360 1.537 7.909 -1.709 -3.296 -22.614
1578227625.675 0.110 1.321 10.055 -1.709 -3.296 -22.614
1578227625.682 0.110 1.321 10.055 -8.087 -1.404 -25.848
1578227625.771 -1.170 1.357 9.192 -8.087 -1.404 -25.848
1578227625.773 -1.170 1.357 9.192 -6.592 0.885 -25.787
1578227625.786 -1.266 0.468 9.580 -6.592 0.885 -25.787
1578227625.791 -1.266 0.468 9.580 0.092 3.540 -26.489
1578227625.802 -0.046 0.767 10.649 0.092 3.540 -26.489
1578227625.805 -0.046 0.767 10.649 -2.228 -4.883 -20.935
1578227625.836 -1.685 -1.237 10.592 -2.228 -4.883 -20.935
1578227625.843 -1.685 -1.237 10.592 -4.883 2.991 -13.092
1578227625.876 -1.554 0.247 9.597 -4.883 2.991 -13.092
1578227625.883 -1.554 0.247 9.597 -1.099 -2.594 -14.954
1578227625.916 -0.551 1.194 9.575 -1.099 -2.594 -14.954
1578227625.923 -0.551 1.194 9.575 0.305 -3.143 -11.108
1578227625.956 -0.794 0.034 9.954 0.305 -3.143 -11.108
1578227625.963 -0.794 0.034 9.954 -0.427 1.801 -2.625
1578227625.997 -1.189 0.038 9.806 -0.427 1.801 -2.625
1578227626.002 -1.189 0.038 9.806 -0.305 -0.671 0.366
1578227626.037 -0.623 -0.007 10.393 -0.305 -0.671 0.366
1578227626.043 -0.623 -0.007 10.393 0.183 -0.183 -0.488
1578227626.074 0.007 0.547 9.767 0.183 -0.183 -0.488
1578227626.083 0.007 0.547 9.767 -0.366 0.061 -0.061
1578227626.117 -0.714 0.182 10.160 -0.366 0.061 -0.061
1578227626.123 -0.714 0.182 10.160 0.397 0.397 0.214
1578227626.154 -0.796 0.542 10.201 0.397 0.397 0.214
1578227626.158 -0.796 0.542 10.201 -0.488 0.122 -0.671
1578227626.197 -0.331 0.261 10.314 -0.488 0.122 -0.671
1578227626.201 -0.331 0.261 10.314 0.153 0.336 -0.244
1578227626.233 -0.489 0.400 10.280 0.153 0.336 -0.244
1578227626.239 -0.489 0.400 10.280 -0.153 0.031 0.122
1578227626.273 -0.690 0.309 10.009 -0.153 0.031 0.122
1578227626.285 -0.690 0.309 10.009 -0.183 0.488 -0.275
1578227626.319 -0.391 0.398 10.069 -0.183 0.488 -0.275
1578227626.323 -0.391 0.398 10.069 -0.275 0.214 -0.061
1578227626.357 -0.489 0.302 10.132 -0.275 0.214 -0.061
1578227626.364 -0.489 0.302 10.132 -0.092 -0.244 0.031
1578227626.397 -0.674 0.340 10.163 -0.092 -0.244 0.031
1578227626.403 -0.674 0.340 10.163 0.031 -0.061 -0.031
1578227626.440 -0.436 0.388 10.064 0.031 -0.061 -0.031
1578227626.442 -0.436 0.388 10.064 -0.183 0.366 -0.214
1578227626.477 -0.482 0.345 10.081 -0.183 0.366 -0.214
1578227626.483 -0.482 0.345 10.081 0.061 -0.061 -0.214
1578227626.518 -0.681 0.434 10.060 0.061 -0.061 -0.214
1578227626.523 -0.681 0.434 10.060 -0.153 0.122 0.061
1578227626.556 -0.456 0.348 10.098 -0.153 0.122 0.061
1578227626.562 -0.456 0.348 10.098 -0.244 0.275 -0.031
1578227626.661 -0.408 0.410 10.120 -0.244 0.275 -0.031
1578227626.668 -0.408 0.410 10.120 -0.183 -0.122 -0.031
1578227626.689 -0.657 0.345 10.149 -0.183 -0.122 -0.031
1578227626.692 -0.657 0.345 10.149 -0.244 0.305 0.061
1578227626.706 -0.530 0.360 10.127 -0.244 0.305 0.061
1578227626.708 -0.530 0.360 10.127 -0.214 0.427 -0.031
1578227626.725 -0.477 0.360 10.182 -0.214 0.427 -0.031
1578227626.728 -0.477 0.360 10.182 0.031 -0.153 -0.031
1578227626.752 -0.580 0.448 10.117 0.031 -0.153 -0.031
1578227626.759 -0.580 0.448 10.117 -0.092 0.183 -0.153
1578227626.795 -0.499 0.386 10.064 -0.092 0.183 -0.153
1578227626.810 -0.499 0.386 10.064 0.061 0.427 0.061
1578227626.903 -0.501 0.367 10.048 0.061 0.427 0.061
1578227626.905 -0.501 0.367 10.048 -0.305 0.122 0.000
1578227626.919 -0.005 0.573 10.105 -0.305 0.122 0.000
1578227626.921 -0.005 0.573 10.105 -0.366 -0.031 -3.479
1578227626.935 -0.717 0.108 10.777 -0.366 -0.031 -3.479
1578227626.937 -0.717 0.108 10.777 0.854 2.014 -2.258
1578227626.961 -0.503 0.058 11.172 0.854 2.014 -2.258
1578227626.968 -0.503 0.058 11.172 0.214 2.075 -3.174
1578227627.001 -0.240 0.254 11.206 0.214 2.075 -3.174
1578227627.008 -0.240 0.254 11.206 -0.549 1.312 -12.848
1578227627.037 -0.328 0.678 10.561 -0.549 1.312 -12.848
1578227627.043 -0.328 0.678 10.561 2.411 -0.031 -14.343
1578227627.078 -0.041 0.259 10.055 2.411 -0.031 -14.343
1578227627.083 -0.041 0.259 10.055 1.068 2.625 -25.696
1578227627.118 0.058 0.415 10.304 1.068 2.625 -25.696
1578227627.123 0.058 0.415 10.304 -2.289 -6.195 -26.123
1578227627.154 -1.477 -1.136 11.443 -2.289 -6.195 -26.123
1578227627.159 -1.477 -1.136 11.443 -4.669 3.082 -20.660
1578227627.193 -1.839 -0.367 10.319 -4.669 3.082 -20.660
1578227627.199 -1.839 -0.367 10.319 -0.610 3.967 -30.304
1578227627.275 -1.474 -0.988 10.980 -0.610 3.967 -30.304
1578227627.278 -1.474 -0.988 10.980 2.319 -1.282 -24.994
1578227627.294 0.736 2.160 8.324 2.319 -1.282 -24.994
1578227627.296 0.736 2.160 8.324 -9.064 -3.357 -23.407
1578227627.321 0.000 1.894 7.295 -9.064 -3.357 -23.407
1578227627.328 0.000 1.894 7.295 -4.089 5.005 -21.271
1578227627.357 -2.071 -0.079 11.410 -4.089 5.005 -21.271
1578227627.363 -2.071 -0.079 11.410 -0.671 -0.092 -17.273
1578227627.401 -1.110 0.633 10.664 -0.671 -0.092 -17.273
1578227627.408 -1.110 0.633 10.664 -1.190 0.671 -18.646
1578227627.438 -1.479 0.292 9.269 -1.190 0.671 -18.646
1578227627.443 -1.479 0.292 9.269 0.061 -0.092 -14.374
1578227627.476 -0.961 -0.125 9.556 0.061 -0.092 -14.374
1578227627.488 -0.961 -0.125 9.556 -0.305 0.031 2.869
1578227627.517 -1.021 0.381 10.302 -0.305 0.031 2.869
1578227627.523 -1.021 0.381 10.302 0.641 0.244 -1.556
1578227627.558 -0.921 0.503 10.268 0.641 0.244 -1.556
1578227627.563 -0.921 0.503 10.268 1.465 1.923 0.305
1578227627.597 -0.420 0.285 10.237 1.465 1.923 0.305
1578227627.604 -0.420 0.285 10.237 -0.092 -0.427 -0.763
1578227627.637 -0.568 0.573 10.098 -0.092 -0.427 -0.763
1578227627.644 -0.568 0.573 10.098 0.214 0.153 -1.770
1578227627.678 -0.465 0.369 10.206 0.214 0.153 -1.770
1578227627.684 -0.465 0.369 10.206 -0.183 0.366 -1.190
1578227627.718 -0.599 0.139 9.983 -0.183 0.366 -1.190
1578227627.723 -0.599 0.139 9.983 0.092 -0.061 0.763
1578227627.757 -0.515 0.547 9.995 0.092 -0.061 0.763
1578227627.764 -0.515 0.547 9.995 -0.092 -0.153 -0.061
1578227627.794 -0.530 0.223 10.132 -0.092 -0.153 -0.061
1578227627.804 -0.530 0.223 10.132 -0.244 0.366 0.366
1578227627.837 -0.549 0.410 10.043 -0.244 0.366 0.366
1578227627.842 -0.549 0.410 10.043 0.214 0.122 -0.427
1578227627.873 -0.590 0.484 10.084 0.214 0.122 -0.427
1578227627.879 -0.590 0.484 10.084 -0.275 0.031 -0.031
1578227627.917 -0.472 0.230 10.098 -0.275 0.031 -0.031
1578227627.924 -0.472 0.230 10.098 -0.092 0.244 0.031
1578227627.953 -0.444 0.372 10.132 -0.092 0.244 0.031
1578227627.960 -0.444 0.372 10.132 -0.244 0.122 0.031
1578227627.993 -0.549 0.328 10.192 -0.244 0.122 0.031
1578227628.003 -0.549 0.328 10.192 -0.183 0.214 -0.031
1578227628.033 -0.523 0.403 10.060 -0.183 0.214 -0.031
1578227628.039 -0.523 0.403 10.060 0.031 0.153 0.244
1578227628.125 -0.513 0.374 10.223 0.031 0.153 0.244
1578227628.128 -0.513 0.374 10.223 -0.214 0.214 0.031
1578227628.144 -0.573 0.340 10.125 -0.214 0.214 0.031
1578227628.146 -0.573 0.340 10.125 0.092 0.000 -0.214
1578227628.162 -0.535 0.357 10.172 0.092 0.000 -0.214
1578227628.164 -0.535 0.357 10.172 -0.305 0.214 0.031
1578227628.193 -0.441 0.283 10.086 -0.305 0.214 0.031
1578227628.200 -0.441 0.283 10.086 -0.061 0.061 -0.061
1578227628.239 -0.475 0.388 10.225 -0.061 0.061 -0.061
1578227628.245 -0.475 0.388 10.225 -0.214 0.153 0.031
1578227628.288 -0.542 0.372 10.096 -0.214 0.153 0.031
1578227628.291 -0.542 0.372 10.096 -0.122 0.122 -0.061
1578227628.344 0.141 -0.432 10.676 -0.122 0.122 -0.061
1578227628.346 0.141 -0.432 10.676 -0.671 0.946 3.052
1578227628.363 0.456 0.655 9.048 -0.671 0.946 3.052
1578227628.368 0.456 0.655 9.048 -0.031 1.434 -3.326
1578227628.398 0.297 0.997 10.110 -0.031 1.434 -3.326
1578227628.404 0.297 0.997 10.110 -2.350 1.129 -5.219
1578227628.438 -0.223 0.928 10.486 -2.350 1.129 -5.219
1578227628.446 -0.223 0.928 10.486 -2.594 1.343 -10.071
1578227628.478 0.468 0.602 10.091 -2.594 1.343 -10.071
1578227628.485 0.468 0.602 10.091 -3.448 -0.977 -16.235
1578227628.515 0.554 0.144 10.642 -3.448 -0.977 -16.235
1578227628.520 0.554 0.144 10.642 -0.854 -1.801 -20.264
1578227628.555 -0.129 1.467 10.597 -0.854 -1.801 -20.264
1578227628.559 -0.129 1.467 10.597 -6.622 -3.540 -22.064
1578227628.594 -1.216 -0.441 10.590 -6.622 -3.540 -22.064
1578227628.600 -1.216 -0.441 10.590 -2.319 1.129 -22.003
1578227628.642 -0.331 0.458 9.909 -2.319 1.129 -22.003
1578227628.693 -0.331 0.458 9.909 -1.862 -5.188 -36.102
1578227628.707 -0.901 1.005 9.969 -1.862 -5.188 -36.102
1578227628.709 -0.901 1.005 9.969 -2.563 0.458 -24.750
1578227628.724 -2.256 0.741 12.577 -2.563 0.458 -24.750
1578227628.726 -2.256 0.741 12.577 -1.282 -1.129 -21.271
1578227628.758 -0.161 -0.010 10.952 -1.282 -1.129 -21.271
1578227628.764 -0.161 -0.010 10.952 -1.404 -0.763 -22.003
1578227628.797 -1.448 0.626 9.856 -1.404 -0.763 -22.003
1578227628.804 -1.448 0.626 9.856 -2.197 0.214 -14.282
1578227628.834 -1.971 -0.098 9.806 -2.197 0.214 -14.282
1578227628.843 -1.971 -0.098 9.806 0.336 0.397 -8.545
1578227628.881 -2.302 -0.499 10.858 0.336 0.397 -8.545
1578227628.886 -2.302 -0.499 10.858 1.770 -0.397 -1.617
1578227628.914 -1.527 -0.046 10.875 1.770 -0.397 -1.617
1578227628.920 -1.527 -0.046 10.875 3.632 2.472 -0.061
1578227628.958 -0.201 0.309 9.424 3.632 2.472 -0.061
1578227628.965 -0.201 0.309 9.424 2.289 2.563 0.305
1578227628.994 -0.005 -0.058 9.551 2.289 2.563 0.305
1578227628.999 -0.005 -0.058 9.551 0.641 -1.770 0.153
1578227629.035 -0.616 0.650 9.837 0.641 -1.770 0.153
1578227629.045 -0.616 0.650 9.837 0.763 -1.251 -0.824
1578227629.074 -0.899 0.297 10.156 0.763 -1.251 -0.824
1578227629.081 -0.899 0.297 10.156 0.458 1.862 0.244
1578227629.114 -0.261 0.304 10.125 0.458 1.862 0.244
1578227629.120 -0.261 0.304 10.125 0.183 0.732 -0.519
1578227629.155 -0.439 0.321 10.014 0.183 0.732 -0.519
1578227629.161 -0.439 0.321 10.014 0.122 -1.099 0.244
1578227629.195 -0.801 0.213 10.091 0.122 -1.099 0.244
1578227629.200 -0.801 0.213 10.091 -0.275 0.427 -0.061
1578227629.233 -0.367 0.333 10.050 -0.275 0.427 -0.061
1578227629.240 -0.367 0.333 10.050 -0.092 0.732 -0.153
1578227629.274 -0.441 0.343 10.031 -0.092 0.732 -0.153
1578227629.280 -0.441 0.343 10.031 -0.244 -0.488 0.000
1578227629.318 -0.722 0.295 10.019 -0.244 -0.488 0.000
1578227629.324 -0.722 0.295 10.019 -0.153 0.183 -0.122
1578227629.354 -0.513 0.388 10.137 -0.153 0.183 -0.122
1578227629.360 -0.513 0.388 10.137 -0.244 0.580 -0.183
1578227629.393 -0.386 0.324 10.033 -0.244 0.580 -0.183
1578227629.400 -0.386 0.324 10.033 -0.244 -0.214 0.061
1578227629.434 -0.650 0.312 10.146 -0.244 -0.214 0.061
1578227629.439 -0.650 0.312 10.146 -0.061 -0.092 -0.031
1578227629.536 -0.542 0.304 10.177 -0.061 -0.092 -0.031
1578227629.539 -0.542 0.304 10.177 -0.397 0.458 0.092
1578227629.554 -0.465 0.340 10.089 -0.397 0.458 0.092
1578227629.556 -0.465 0.340 10.089 -0.153 -0.092 -0.061
1578227629.569 -0.602 0.384 10.105 -0.153 -0.092 -0.061
1578227629.574 -0.602 0.384 10.105 -0.275 0.000 0.153
1578227629.594 -0.551 0.355 10.153 -0.275 0.000 0.153
1578227629.601 -0.551 0.355 10.153 -0.092 0.336 -0.092
1578227629.630 -0.501 0.357 10.115 -0.092 0.336 -0.092
1578227629.635 -0.501 0.357 10.115 -0.153 0.061 -0.092
1578227629.672 -0.592 0.333 10.194 -0.153 0.061 -0.092
1578227629.684 -0.592 0.333 10.194 0.000 -0.153 -0.031
1578227629.731 -0.595 0.336 10.081 0.000 -0.153 -0.031
1578227629.735 -0.595 0.336 10.081 -0.061 0.122 -0.031
1578227629.795 -0.479 0.300 10.134 -0.061 0.122 -0.031
1578227629.798 -0.479 0.300 10.134 -0.153 0.244 0.305
1578227629.812 0.364 0.707 9.518 -0.153 0.244 0.305
1578227629.814 0.364 0.707 9.518 0.000 0.336 -3.937
1578227629.835 0.070 0.288 10.777 0.000 0.336 -3.937
1578227629.840 0.070 0.288 10.777 1.190 -1.129 -7.965
1578227629.874 -0.103 0.017 9.858 1.190 -1.129 -7.965
1578227629.881 -0.103 0.017 9.858 1.923 2.991 -8.575
1578227629.910 0.638 1.367 10.283 1.923 2.991 -8.575
1578227629.917 0.638 1.367 10.283 -3.540 -3.876 -17.029
1578227629.947 0.755 1.120 9.472 -3.540 -3.876 -17.029
1578227629.953 0.755 1.120 9.472 -4.333 3.113 -23.376
1578227629.982 -1.235 -1.237 10.079 -4.333 3.113 -23.376
1578227629.988 -1.235 -1.237 10.079 -0.275 0.092 -22.797
1578227630.022 -1.139 -0.168 12.347 -0.275 0.092 -22.797
1578227630.028 -1.139 -0.168 12.347 2.625 1.373 -25.818
1578227630.058 -0.717 1.901 8.971 2.625 1.373 -25.818
1578227630.062 -0.717 1.901 8.971 0.000 -1.282 -31.799
1578227630.141 0.211 1.906 9.549 0.000 -1.282 -31.799
1578227630.146 0.211 1.906 9.549 3.540 -4.700 -28.565
1578227630.160 -1.410 0.429 11.469 3.540 -4.700 -28.565
1578227630.162 -1.410 0.429 11.469 -4.608 1.221 -26.642
1578227630.177 -0.424 0.597 10.098 -4.608 1.221 -26.642
1578227630.187 -0.424 0.597 10.098 -4.578 3.265 -27.191
1578227630.221 -1.189 0.058 11.043 -4.578 3.265 -27.191
1578227630.227 -1.189 0.058 11.043 -1.312 -3.784 -16.846
1578227630.257 -1.753 -0.858 9.388 -1.312 -3.784 -16.846
1578227630.263 -1.753 -0.858 9.388 0.458 3.296 -16.998
1578227630.304 -1.618 -0.465 8.633 0.458 3.296 -16.998
1578227630.308 -1.618 -0.465 8.633 -1.495 -3.021 -10.529
1578227630.338 -1.486 -0.273 10.021 -1.495 -3.021 -10.529
1578227630.346 -1.486 -0.273 10.021 -0.336 -1.404 -6.561
1578227630.379 -0.870 0.139 9.861 -0.336 -1.404 -6.561
1578227630.386 -0.870 0.139 9.861 -0.458 0.488 -0.885
1578227630.419 -0.511 0.209 9.815 -0.458 0.488 -0.885
1578227630.424 -0.511 0.209 9.815 -0.244 0.763 1.007
1578227630.459 -0.539 0.316 10.144 -0.244 0.763 1.007
1578227630.463 -0.539 0.316 10.144 -0.092 0.214 0.153
1578227630.498 -0.609 0.161 10.177 -0.092 0.214 0.153
1578227630.505 -0.609 0.161 10.177 0.183 -0.275 -0.427
1578227630.534 -0.770 0.388 10.273 0.183 -0.275 -0.427
1578227630.541 -0.770 0.388 10.273 -0.061 0.519 -0.214
1578227630.577 -0.621 0.273 10.232 -0.061 0.519 -0.214
1578227630.585 -0.621 0.273 10.232 -0.092 0.366 0.305
1578227630.615 -0.566 0.309 10.132 -0.092 0.366 0.305
1578227630.620 -0.566 0.309 10.132 0.031 0.153 -0.092
1578227630.655 -0.669 0.331 10.043 0.031 0.153 -0.092
1578227630.660 -0.669 0.331 10.043 -0.153 0.061 -0.244
1578227630.694 -0.559 0.338 10.074 -0.153 0.061 -0.244
1578227630.701 -0.559 0.338 10.074 -0.061 0.092 0.275
1578227630.734 -0.470 0.374 10.160 -0.061 0.092 0.275
1578227630.740 -0.470 0.374 10.160 -0.183 0.092 -0.183
1578227630.774 -0.659 0.415 10.156 -0.183 0.092 -0.183
1578227630.779 -0.659 0.415 10.156 0.000 0.153 -0.366
1578227630.810 -0.535 0.300 10.072 0.000 0.153 -0.366
1578227630.817 -0.535 0.300 10.072 -0.244 0.305 -0.031
1578227630.854 -0.559 0.309 10.220 -0.244 0.305 -0.031
1578227630.860 -0.559 0.309 10.220 -0.092 0.244 -0.214
1578227630.910 -0.559 0.307 10.084 -0.092 0.244 -0.214
1578227630.951 -0.559 0.307 10.084 -0.061 0.031 0.031
1578227630.965 -0.578 0.304 10.117 -0.061 0.031 0.031
1578227630.968 -0.578 0.304 10.117 -0.122 0.031 -0.092
1578227630.983 -0.554 0.328 10.033 -0.122 0.031 -0.092
1578227630.986 -0.554 0.328 10.033 -0.031 0.092 -0.061
1578227631.013 -0.554 0.355 10.072 -0.031 0.092 -0.061
1578227631.018 -0.554 0.355 10.072 -0.214 0.153 -0.031
1578227631.049 -0.652 0.348 9.995 -0.214 0.153 -0.031
1578227631.056 -0.652 0.348 9.995 0.000 0.183 -0.153
1578227631.087 -0.585 0.333 10.146 0.000 0.183 -0.153
1578227631.092 -0.585 0.333 10.146 -0.153 0.336 0.031
1578227631.131 -0.587 0.304 10.101 -0.153 0.336 0.031
1578227631.137 -0.587 0.304 10.101 -0.183 0.061 0.000
1578227631.169 -0.559 0.364 10.160 -0.183 0.061 0.000
1578227631.173 -0.559 0.364 10.160 -0.183 0.183 -0.153
1578227631.253 -0.578 0.283 10.156 -0.183 0.183 -0.153
1578227631.255 -0.578 0.283 10.156 -0.153 0.183 0.061
1578227631.357 -0.664 0.364 10.156 -0.153 0.183 0.061
1578227631.360 -0.664 0.364 10.156 -0.153 1.678 -0.397
1578227631.371 -0.695 -0.151 11.222 -0.153 1.678 -0.397
1578227631.373 -0.695 -0.151 11.222 0.183 0.458 0.122
1578227631.386 0.307 0.309 10.340 0.183 0.458 0.122
1578227631.388 0.307 0.309 10.340 1.831 -2.136 -2.625
1578227631.399 -0.269 -0.050 9.602 1.831 -2.136 -2.625
1578227631.402 -0.269 -0.050 9.602 -0.885 -0.793 -6.958
1578227631.415 0.899 0.803 9.209 -0.885 -0.793 -6.958
1578227631.418 0.899 0.803 9.209 -3.815 -1.251 -8.575
1578227631.429 -0.213 0.856 9.964 -3.815 -1.251 -8.575
1578227631.435 -0.213 0.856 9.964 0.458 0.427 -17.334
1578227631.466 0.050 1.546 9.894 0.458 0.427 -17.334
1578227631.472 0.050 1.546 9.894 -3.906 -5.096 -21.088
1578227631.501 -0.384 -0.959 12.805 -3.906 -5.096 -21.088
1578227631.507 -0.384 -0.959 12.805 9.277 0.641 -32.532
1578227631.536 -0.266 -0.077 9.662 9.277 0.641 -32.532
1578227631.544 -0.266 -0.077 9.662 -3.540 -1.099 -28.229
1578227631.574 0.328 0.168 10.244 -3.540 -1.099 -28.229
1578227631.578 0.328 0.168 10.244 -6.744 0.763 -32.288
1578227631.610 -1.393 1.096 10.019 -6.744 0.763 -32.288
1578227631.614 -1.393 1.096 10.019 -1.648 3.296 -38.849
1578227631.645 -3.647 1.539 13.107 -1.648 3.296 -38.849
1578227631.653 -3.647 1.539 13.107 -0.610 -1.404 -32.166
1578227631.681 0.813 0.702 9.621 -0.610 -1.404 -32.166
1578227631.687 0.813 0.702 9.621 5.707 -0.061 -36.652
1578227631.718 -0.446 -0.575 9.885 5.707 -0.061 -36.652
1578227631.724 -0.446 -0.575 9.885 5.249 -8.423 -39.581
1578227631.755 -1.283 -1.218 10.208 5.249 -8.423 -39.581
1578227631.760 -1.283 -1.218 10.208 9.857 -0.214 -34.607
1578227631.791 1.292 0.506 10.043 9.857 -0.214 -34.607
1578227631.795 1.292 0.506 10.043 -6.165 -4.639 -37.689
1578227631.826 0.230 -0.362 8.187 -6.165 -4.639 -37.689
1578227631.830 0.230 -0.362 8.187 4.059 6.073 -31.067
1578227631.861 1.494 1.287 15.965 4.059 6.073 -31.067
1578227631.867 1.494 1.287 15.965 -2.991 -5.920 -38.055
1578227631.898 0.971 2.807 5.723 -2.991 -5.920 -38.055
1578227631.904 0.971 2.807 5.723 -15.625 -4.700 -37.720
1578227631.934 -0.058 -0.635 8.099 -15.625 -4.700 -37.720
1578227631.941 -0.058 -0.635 8.099 4.639 6.927 -42.969
1578227631.968 -0.806 -1.743 12.812 4.639 6.927 -42.969
1578227631.976 -0.806 -1.743 12.812 12.238 -4.700 -37.537
1578227632.005 1.316 1.225 8.849 12.238 -4.700 -37.537
1578227632.012 1.316 1.225 8.849 -3.571 3.204 -41.596
1578227632.040 0.556 0.909 10.875 -3.571 3.204 -41.596
1578227632.048 0.556 0.909 10.875 -14.679 -3.510 -41.901
1578227632.079 -2.575 -1.110 9.127 -14.679 -3.510 -41.901
1578227632.083 -2.575 -1.110 9.127 5.188 -2.991 -38.147
1578227632.114 2.230 0.657 11.345 5.188 -2.991 -38.147
1578227632.119 2.230 0.657 11.345 -17.487 -2.686 -46.783
1578227632.150 0.218 1.470 8.259 -17.487 -2.686 -46.783
1578227632.156 0.218 1.470 8.259 -4.425 0.244 -40.924
1578227632.185 -0.158 1.355 8.705 -4.425 0.244 -40.924
1578227632.192 -0.158 1.355 8.705 -3.174 -2.045 -47.607
1578227632.223 -0.772 0.616 7.375 -3.174 -2.045 -47.607
1578227632.226 -0.772 0.616 7.375 0.916 -1.862 -44.952
1578227632.257 -2.954 -0.738 12.953 0.916 -1.862 -44.952
1578227632.264 -2.954 -0.738 12.953 16.235 -0.824 -54.749
1578227632.293 -1.249 -0.707 11.625 16.235 -0.824 -54.749
1578227632.299 -1.249 -0.707 11.625 -4.608 0.885 -47.882
1578227632.334 0.345 0.460 10.527 -4.608 0.885 -47.882
1578227632.340 0.345 0.460 10.527 -2.167 1.007 -52.887
1578227632.370 -0.964 -0.002 9.396 -2.167 1.007 -52.887
1578227632.377 -0.964 -0.002 9.396 0.610 4.456 -50.354
1578227632.407 -1.100 1.251 7.890 0.610 4.456 -50.354
1578227632.413 -1.100 1.251 7.890 2.625 2.106 -55.115
1578227632.442 -1.208 0.875 11.083 2.625 2.106 -55.115
1578227632.448 -1.208 0.875 11.083 -7.233 2.472 -48.737
1578227632.479 -0.556 -0.599 11.649 -7.233 2.472 -48.737
1578227632.485 -0.556 -0.599 11.649 0.122 -2.197 -52.216
1578227632.515 -1.987 0.556 9.573 0.122 -2.197 -52.216
1578227632.520 -1.987 0.556 9.573 3.937 -2.960 -52.887
1578227632.551 1.431 -1.237 11.354 3.937 -2.960 -52.887
1578227632.557 1.431 -1.237 11.354 -0.061 -2.625 -52.887
1578227632.588 0.089 0.966 11.318 -0.061 -2.625 -52.887
1578227632.593 0.089 0.966 11.318 -7.629 -3.510 -47.180
1578227632.623 -0.549 0.825 7.885 -7.629 -3.510 -47.180
1578227632.628 -0.549 0.825 7.885 4.547 -0.946 -58.807
1578227632.658 1.741 0.333 10.518 4.547 -0.946 -58.807
1578227632.664 1.741 0.333 10.518 -8.087 -1.587 -58.350
1578227632.693 -0.947 -1.618 14.289 -8.087 -1.587 -58.350
1578227632.700 -0.947 -1.618 14.289 -4.120 -10.956 -56.671
1578227632.731 0.530 -0.436 7.931 -4.120 -10.956 -56.671
1578227632.735 0.530 -0.436 7.931 -19.104 -1.434 -56.885
1578227632.766 -0.089 -0.326 6.610 -19.104 -1.434 -56.885
1578227632.773 -0.089 -0.326 6.610 4.944 -2.777 -55.572
1578227632.802 -0.494 1.570 8.971 4.944 -2.777 -55.572
1578227632.808 -0.494 1.570 8.971 2.380 3.479 -55.969
1578227632.838 -0.549 0.259 9.949 2.380 3.479 -55.969
1578227632.851 -0.549 0.259 9.949 4.700 -1.953 -51.270
1578227632.874 -1.041 0.530 9.362 4.700 -1.953 -51.270
1578227632.880 -1.041 0.530 9.362 -1.434 0.824 -65.277
1578227632.912 -1.088 0.034 12.383 -1.434 0.824 -65.277
1578227632.916 -1.088 0.034 12.383 -0.397 -0.458 -57.342
1578227632.951 -1.019 -1.537 11.129 -0.397 -0.458 -57.342
1578227632.957 -1.019 -1.537 11.129 -0.427 6.409 -56.519
1578227632.991 -3.865 -3.728 17.075 -0.427 6.409 -56.519
1578227632.997 -3.865 -3.728 17.075 -1.740 -6.958 -52.917
1578227633.030 -1.216 -0.271 11.290 -1.740 -6.958 -52.917
1578227633.036 -1.216 -0.271 11.290 4.730 2.045 -44.830
1578227633.071 -1.566 -1.048 10.772 4.730 2.045 -44.830
1578227633.077 -1.566 -1.048 10.772 -1.343 -1.953 -33.203
1578227633.106 -0.808 0.082 8.247 -1.343 -1.953 -33.203
1578227633.113 -0.808 0.082 8.247 1.068 4.425 -23.895
1578227633.147 0.451 -1.148 9.861 1.068 4.425 -23.895
1578227633.153 0.451 -1.148 9.861 0.946 -5.249 -9.705
1578227633.186 -0.772 -0.026 9.276 0.946 -5.249 -9.705
1578227633.191 -0.772 -0.026 9.276 7.141 5.707 -2.502
1578227633.223 -0.403 -0.760 10.264 7.141 5.707 -2.502
1578227633.228 -0.403 -0.760 10.264 2.838 1.007 0.610
1578227633.262 -1.163 -0.257 9.868 2.838 1.007 0.610
1578227633.269 -1.163 -0.257 9.868 8.240 5.646 9.735
1578227633.305 -0.705 -0.832 11.767 8.240 5.646 9.735
1578227633.311 -0.705 -0.832 11.767 2.045 2.960 13.733
1578227633.342 -2.194 0.326 11.539 2.045 2.960 13.733
1578227633.347 -2.194 0.326 11.539 0.214 2.777 15.869
1578227633.380 -1.122 0.595 14.617 0.214 2.777 15.869
1578227633.386 -1.122 0.595 14.617 -2.411 0.763 15.167
1578227633.421 -2.062 0.213 14.869 -2.411 0.763 15.167
1578227633.425 -2.062 0.213 14.869 -2.014 0.580 10.437
1578227633.456 0.091 -1.165 11.139 -2.014 0.580 10.437
1578227633.461 0.091 -1.165 11.139 0.031 -2.686 13.184
1578227633.492 0.082 -0.269 9.801 0.031 -2.686 13.184
1578227633.498 0.082 -0.269 9.801 -6.622 0.702 10.101
1578227633.528 0.132 2.920 2.745 -6.622 0.702 10.101
1578227633.535 0.132 2.920 2.745 10.986 8.911 12.177
1578227633.563 -1.928 0.894 10.333 10.986 8.911 12.177
1578227633.571 -1.928 0.894 10.333 5.280 5.127 9.949
1578227633.601 -0.719 -1.091 11.182 5.280 5.127 9.949
1578227633.605 -0.719 -1.091 11.182 -1.923 -2.197 4.211
1578227633.637 -1.029 1.139 10.810 -1.923 -2.197 4.211
1578227633.643 -1.029 1.139 10.810 -3.357 -2.075 8.789
1578227633.672 -0.024 2.848 9.050 -3.357 -2.075 8.789
1578227633.679 -0.024 2.848 9.050 0.183 2.625 8.514
1578227633.709 3.100 0.573 10.326 0.183 2.625 8.514
1578227633.715 3.100 0.573 10.326 3.998 -8.514 -0.854
1578227633.745 0.664 -0.043 7.856 3.998 -8.514 -0.854
1578227633.751 0.664 -0.043 7.856 4.761 5.249 9.521
1578227633.781 1.266 0.738 6.754 4.761 5.249 9.521
1578227633.786 1.266 0.738 6.754 -2.472 -2.289 -0.031
1578227633.817 -3.560 -0.702 8.343 -2.472 -2.289 -0.031
1578227633.822 -3.560 -0.702 8.343 8.270 14.465 4.791
1578227633.852 -1.400 3.448 9.098 8.270 14.465 4.791
1578227633.859 -1.400 3.448 9.098 5.096 -3.937 1.831
1578227633.888 -1.283 0.997 9.729 5.096 -3.937 1.831
1578227633.895 -1.283 0.997 9.729 -6.775 13.428 -0.854
1578227633.924 1.187 0.981 10.978 -6.775 13.428 -0.854
1578227633.929 1.187 0.981 10.978 0.916 -6.042 0.427
1578227633.961 -2.791 -0.969 11.220 0.916 -6.042 0.427
1578227633.965 -2.791 -0.969 11.220 13.825 5.035 -3.082
1578227633.997 1.947 -2.467 14.138 13.825 5.035 -3.082
1578227634.001 1.947 -2.467 14.138 -13.367 -10.345 -4.608
1578227634.032 -4.203 -1.374 8.372 -13.367 -10.345 -4.608
1578227634.038 -4.203 -1.374 8.372 5.066 2.502 -1.007
1578227634.068 1.664 -0.288 13.428 5.066 2.502 -1.007
1578227634.076 1.664 -0.288 13.428 -14.618 -3.204 -5.768
1578227634.104 -2.527 -1.880 9.163 -14.618 -3.204 -5.768
1578227634.110 -2.527 -1.880 9.163 8.911 -1.251 0.610
1578227634.140 0.635 0.180 10.789 8.911 -1.251 0.610
1578227634.147 0.635 0.180 10.789 3.723 -9.033 2.777
1578227634.178 0.300 1.863 10.340 3.723 -9.033 2.777
1578227634.182 0.300 1.863 10.340 -0.305 -3.357 -2.197
1578227634.212 -1.491 1.235 12.575 -0.305 -3.357 -2.197
1578227634.219 -1.491 1.235 12.575 -1.770 -2.075 1.953
1578227634.248 -1.263 1.314 9.851 -1.770 -2.075 1.953
1578227634.254 -1.263 1.314 9.851 0.397 -0.061 2.533
1578227634.284 -1.374 -1.661 9.609 0.397 -0.061 2.533
1578227634.291 -1.374 -1.661 9.609 2.747 -0.275 4.089
1578227634.325 -1.671 -0.614 9.319 2.747 -0.275 4.089
1578227634.329 -1.671 -0.614 9.319 6.958 0.275 6.958
1578227634.360 -0.374 0.288 10.163 6.958 0.275 6.958
1578227634.366 -0.374 0.288 10.163 -7.874 -1.831 23.743
1578227634.396 -1.311 1.110 11.021 -7.874 -1.831 23.743
1578227634.402 -1.311 1.110 11.021 -0.305 2.106 26.611
1578227634.433 -0.822 0.762 9.736 -0.305 2.106 26.611
1578227634.440 -0.822 0.762 9.736 -4.395 -2.136 31.464
1578227634.468 -0.794 -0.276 9.314 -4.395 -2.136 31.464
1578227634.474 -0.794 -0.276 9.314 5.096 -3.845 33.142
1578227634.504 -1.132 0.456 10.563 5.096 -3.845 33.142
1578227634.509 -1.132 0.456 10.563 4.730 2.014 30.273
1578227634.540 0.161 0.053 9.676 4.730 2.014 30.273
1578227634.545 0.161 0.053 9.676 5.554 -1.556 42.786
1578227634.578 -1.060 1.544 9.161 5.554 -1.556 42.786
1578227634.583 -1.060 1.544 9.161 0.336 -1.587 32.043
1578227634.613 -0.923 0.400 10.264 0.336 -1.587 32.043
1578227634.619 -0.923 0.400 10.264 -1.251 3.448 39.490
1578227634.648 -0.772 0.084 10.779 -1.251 3.448 39.490
1578227634.655 -0.772 0.084 10.779 1.373 -0.580 43.945
1578227634.686 -1.453 -0.242 10.611 1.373 -0.580 43.945
1578227634.690 -1.453 -0.242 10.611 -3.693 1.862 43.549
1578227634.721 -0.808 -0.410 11.508 -3.693 1.862 43.549
1578227634.727 -0.808 -0.410 11.508 3.418 -2.289 48.340
1578227634.757 -2.163 0.228 11.472 3.418 -2.289 48.340
1578227634.763 -2.163 0.228 11.472 3.754 6.165 49.408
1578227634.792 -0.110 0.503 10.930 3.754 6.165 49.408
1578227634.798 -0.110 0.503 10.930 4.333 -1.129 51.147
1578227634.828 -0.834 0.834 10.019 4.333 -1.129 51.147
1578227634.834 -0.834 0.834 10.019 1.953 5.066 50.384
1578227634.865 0.161 0.115 9.175 1.953 5.066 50.384
1578227634.870 0.161 0.115 9.175 3.571 -0.488 52.856
1578227634.902 -1.144 0.007 10.453 3.571 -0.488 52.856
1578227634.906 -1.144 0.007 10.453 1.648 1.801 50.507
1578227634.939 -1.204 -0.046 11.268 1.648 1.801 50.507
1578227634.942 -1.204 -0.046 11.268 4.364 7.660 59.357
1578227634.971 -1.251 0.909 10.144 4.364 7.660 59.357
1578227634.978 -1.251 0.909 10.144 1.831 2.625 52.002
1578227635.008 -1.376 -1.120 11.668 1.831 2.625 52.002
1578227635.014 -1.376 -1.120 11.668 4.761 0.397 55.969
1578227635.045 -1.230 0.197 10.115 4.761 0.397 55.969
1578227635.050 -1.230 0.197 10.115 6.226 2.197 51.727
1578227635.081 -0.432 -0.861 9.592 6.226 2.197 51.727
1578227635.086 -0.432 -0.861 9.592 1.221 1.373 54.901
1578227635.117 -1.072 0.000 9.537 1.221 1.373 54.901
1578227635.122 -1.072 0.000 9.537 0.702 3.418 55.847
1578227635.153 -0.384 2.457 10.108 0.702 3.418 55.847
1578227635.158 -0.384 2.457 10.108 -1.129 7.812 60.272
1578227635.188 -1.736 1.856 10.954 -1.129 7.812 60.272
1578227635.194 -1.736 1.856 10.954 -1.404 4.059 54.321
1578227635.224 -1.057 1.067 9.736 -1.404 4.059 54.321
1578227635.229 -1.057 1.067 9.736 -3.754 0.336 57.098
1578227635.260 0.345 0.156 10.235 -3.754 0.336 57.098
1578227635.266 0.345 0.156 10.235 -2.319 -5.676 57.037
1578227635.297 -0.101 0.463 10.218 -2.319 -5.676 57.037
1578227635.306 -0.101 0.463 10.218 -2.319 -2.777 55.603
1578227635.336 0.623 0.527 9.748 -2.319 -2.777 55.603
1578227635.342 0.623 0.527 9.748 -0.732 -2.808 58.105
1578227635.371 -0.235 0.887 9.405 -0.732 -2.808 58.105
1578227635.378 -0.235 0.887 9.405 -0.122 -0.458 54.443
1578227635.409 -0.197 -0.882 12.088 -0.122 -0.458 54.443
1578227635.414 -0.197 -0.882 12.088 0.305 -0.031 61.218
1578227635.445 -1.729 -0.216 10.534 0.305 -0.031 61.218
1578227635.450 -1.729 -0.216 10.534 4.913 5.951 58.075
1578227635.479 -0.422 -0.223 10.220 4.913 5.951 58.075
1578227635.487 -0.422 -0.223 10.220 3.357 -2.808 56.061
1578227635.517 -0.357 0.928 8.501 3.357 -2.808 56.061
1578227635.522 -0.357 0.928 8.501 7.050 3.845 55.572
1578227635.552 0.381 0.036 7.758 7.050 3.845 55.572
1578227635.558 0.381 0.036 7.758 2.747 3.815 58.563
1578227635.587 -0.906 0.700 9.796 2.747 3.815 58.563
1578227635.594 -0.906 0.700 9.796 0.458 0.732 50.537
1578227635.625 -1.642 -0.436 11.218 0.458 0.732 50.537
1578227635.629 -1.642 -0.436 11.218 6.958 3.571 58.807
1578227635.661 -0.813 -0.573 10.419 6.958 3.571 58.807
1578227635.666 -0.813 -0.573 10.419 1.648 1.282 57.678
1578227635.696 -0.520 0.264 9.993 1.648 1.282 57.678
1578227635.702 -0.520 0.264 9.993 -5.920 7.721 58.441
1578227635.732 -0.067 1.381 10.096 -5.920 7.721 58.441
1578227635.739 -0.067 1.381 10.096 -0.854 -4.700 52.734
1578227635.768 -0.542 0.137 9.779 -0.854 -4.700 52.734
1578227635.774 -0.542 0.137 9.779 0.305 6.165 56.610
1578227635.804 -0.199 0.595 8.521 0.305 6.165 56.610
1578227635.811 -0.199 0.595 8.521 8.087 -2.319 58.594
1578227635.841 -0.767 0.012 10.707 8.087 -2.319 58.594
1578227635.846 -0.767 0.012 10.707 -4.547 4.944 56.610
1578227635.877 -0.503 0.468 9.789 -4.547 4.944 56.610
1578227635.882 -0.503 0.468 9.789 6.653 -3.815 60.364
1578227635.918 -1.542 -0.034 10.606 6.653 -3.815 60.364
1578227635.959 -1.542 -0.034 10.606 -0.885 6.683 56.549
1578227635.972 -0.235 -0.017 10.453 -0.885 6.683 56.549
1578227635.974 -0.235 -0.017 10.453 5.127 -2.472 59.845
1578227635.991 -1.637 0.647 10.355 5.127 -2.472 59.845
1578227635.993 -1.637 0.647 10.355 1.587 5.035 48.859
1578227636.042 -0.436 0.779 9.216 1.587 5.035 48.859
1578227636.044 -0.436 0.779 9.216 5.432 -2.228 45.075
1578227636.102 -1.932 1.239 9.858 5.432 -2.228 45.075
1578227636.107 -1.932 1.239 9.858 5.951 4.425 28.290
1578227636.124 -1.333 1.498 9.870 5.951 4.425 28.290
1578227636.126 -1.333 1.498 9.870 2.594 2.838 24.323
1578227636.148 -1.000 0.865 10.108 2.594 2.838 24.323
1578227636.153 -1.000 0.865 10.108 -2.014 2.228 9.186
1578227636.188 -1.014 1.048 9.710 -2.014 2.228 9.186
1578227636.194 -1.014 1.048 9.710 -1.831 0.702 -5.859
1578227636.226 -0.393 0.614 10.177 -1.831 0.702 -5.859
1578227636.229 -0.393 0.614 10.177 -0.885 0.397 -0.031
1578227636.262 -0.168 0.532 10.129 -0.885 0.397 -0.031
1578227636.269 -0.168 0.532 10.129 -0.061 -0.336 -4.303
1578227636.305 -0.659 0.278 9.964 -0.061 -0.336 -4.303
1578227636.313 -0.659 0.278 9.964 0.305 0.092 1.923
1578227636.342 -0.595 0.587 10.108 0.305 0.092 1.923
1578227636.346 -0.595 0.587 10.108 0.336 0.031 -1.373
1578227636.381 -0.578 0.501 10.029 0.336 0.031 -1.373
1578227636.387 -0.578 0.501 10.029 0.061 0.580 0.763
1578227636.420 -0.549 0.420 10.151 0.061 0.580 0.763
1578227636.427 -0.549 0.420 10.151 0.183 -0.092 -0.641
1578227636.457 -0.607 0.446 10.122 0.183 -0.092 -0.641
1578227636.463 -0.607 0.446 10.122 0.183 -0.031 0.275
