%  1    time 0.000 sec
%  2    mission (0) state 2
%  3  4  5 Acc x,y,z: 10.196401 -0.385991 1.445669
%  6  7  8 Gyro x,y,z: -0.915527 0.396729 -0.038147
%  9 10 Motor velocity ref left, right: 60.00 60.00
% 11 12 Motor voltage [V] left, right: 12.0 12.0
% 13 14 Motor current left, right [A]: 0.013 -0.000
% 15 16 Wheel velocity [r/s] left, right: 0.0000 0.0000
% 17 18 19 20 Pose x,y,h,tilt [m,m,rad,rad]: 0.0000 0.0000 0.000000 -1.429729
% 21    Battery voltage [V]: 11.98
% 22 23 Get data time [us]: 490 +ctrl 770
% 24 25 26 27 Extra pt.: balE[0], balU[0], balUI[0], balUI[1]: 0.00 0.0000 0.0000 0.0000
0.001 2 10.217978 -0.445928 1.332988 -1.022339 0.312805 0.038147 60.00 60.00 12.0 12.0 0.709 0.475 0.0000 0.0000 0.0000 0.0000 0.000000 -1.429837 11.98 490 700 0.00 0.00 0.0000 0.0000
0.002 2 10.182016 -0.395581 1.359360 -0.877380 0.373840 0.053406 60.00 60.00 12.0 12.0 1.831 1.463 0.0000 0.0000 0.0000 0.0000 0.000000 -1.430024 11.98 490 660 0.00 0.00 0.0000 0.0000
0.003 2 10.045361 -0.438735 1.493618 -0.938416 0.892639 0.106812 60.00 60.00 12.0 12.0 2.059 2.103 0.0000 0.0000 0.0002 0.0000 0.002595 -1.430025 11.98 490 680 0.00 0.00 0.0000 0.0000
0.004 2 9.810410 -0.309272 1.450464 -0.991821 1.823425 0.122070 60.00 60.00 5.9 5.9 2.059 2.274 0.0000 0.0000 0.0004 0.0000 0.000000 -1.429874 5.85 510 710 0.00 0.00 0.0000 0.0000
0.005 2 9.668960 -0.321260 0.901445 -0.930786 2.166748 -0.274658 60.00 60.00 5.9 5.9 2.059 2.116 0.0000 6.9347 0.0006 0.0000 0.002595 -1.430257 5.85 490 710 0.00 0.00 0.0000 0.0000
0.006 2 9.685741 -0.664097 0.541826 -0.831604 2.487183 -1.838684 60.00 60.00 5.9 5.9 2.059 1.957 8.3473 6.9347 0.0008 0.0000 0.000000 -1.431526 5.85 490 730 0.00 0.00 0.0000 0.0000
0.007 2 9.808012 -0.501069 1.939546 -0.991821 2.929688 -1.968384 60.00 60.00 5.9 5.9 2.059 1.957 8.3473 10.4021 0.0012 0.0000 0.000000 -1.431750 5.85 490 710 0.00 0.00 0.0000 0.0000
0.008 2 10.685483 -0.606558 2.287178 -0.534058 0.671387 -2.166748 60.00 60.00 5.9 5.9 2.059 1.983 9.7991 12.2934 0.0014 0.0000 0.002595 -1.430452 5.85 490 730 0.00 0.00 0.0000 0.0000
0.009 2 12.370898 -2.217651 1.539170 3.135681 -1.243591 -0.991821 60.00 60.00 7.4 7.4 2.059 2.040 10.9941 13.5227 0.0018 0.0000 0.002595 -1.429922 7.37 510 760 0.00 0.00 0.0000 0.0000
0.010 2 7.134843 1.742954 2.613232 -2.311707 -0.434875 -0.091553 60.00 60.00 7.4 7.4 2.059 2.059 12.2934 16.2924 0.0024 0.0000 0.005191 -1.428025 7.37 490 750 0.00 0.00 0.0000 0.0000
0.011 2 10.985166 3.893476 5.015488 -4.798889 2.822876 0.930786 60.00 60.00 7.4 7.4 2.059 1.780 15.5433 17.3368 0.0030 0.0000 0.002595 -1.423115 7.37 490 750 0.00 0.00 0.0000 0.0000
0.012 2 11.975317 -3.886284 -4.344199 -2.998352 -0.755310 1.106262 60.00 60.00 7.4 7.4 2.059 1.691 17.3368 17.5619 0.0034 0.0000 0.002595 -1.425226 7.37 490 750 0.00 0.00 0.0000 0.0000
0.013 2 9.580254 -0.222964 -5.825830 -0.526428 -2.044678 0.617981 60.00 60.00 7.4 7.4 1.907 1.862 19.5981 20.1831 0.0042 0.0000 0.002595 -1.436988 7.37 490 730 0.00 0.00 0.0000 0.0000
0.014 2 9.587446 -2.260806 10.016591 1.762390 4.409790 -0.282288 60.00 60.00 8.4 8.4 1.945 2.008 20.8041 22.1684 0.0048 0.0000 0.005191 -1.437033 8.43 510 740 0.00 0.00 0.0000 0.0000
0.015 2 9.225430 -0.421953 5.960088 2.578735 5.180359 -0.877380 60.00 60.00 8.4 8.4 2.059 2.160 22.5378 25.0420 0.0056 0.0000 0.005191 -1.425927 8.43 490 710 0.00 0.00 0.0000 0.0000
0.016 2 11.886611 -0.644917 -6.787212 3.402710 -2.876282 -0.526428 60.00 60.00 8.4 8.4 2.059 1.729 24.5867 26.5151 0.0064 0.0000 0.005191 -1.428234 8.43 490 720 0.00 0.00 0.0000 0.0000
0.017 2 9.604228 -0.748008 1.620684 -1.358032 -0.175476 0.495911 60.00 60.00 8.4 8.4 2.059 1.748 26.5151 27.5973 0.0072 0.0000 0.005191 -1.434565 8.43 490 710 0.00 0.00 0.0000 0.0000
0.018 2 9.956655 4.562368 7.854082 -6.149292 1.808167 1.312256 60.00 60.00 8.4 8.4 1.932 1.894 27.5973 28.7717 0.0080 0.0000 0.005191 -1.428980 8.43 490 720 0.00 0.00 0.0000 0.0000
0.019 2 11.450274 -2.577271 -1.359360 -3.875732 0.289917 1.525879 60.00 60.00 8.4 8.4 2.014 2.097 28.7717 30.0504 0.0089 0.0000 0.005191 -1.426327 8.43 510 740 0.00 0.00 0.0000 0.0000
0.020 2 9.748075 -1.095640 -0.644917 -0.221252 1.396179 0.144958 60.00 60.00 8.4 8.4 2.059 1.666 31.4481 33.8067 0.0101 0.0000 0.005191 -1.430997 8.43 490 710 0.00 0.00 0.0000 0.0000
0.021 2 9.515522 -1.433682 4.770947 2.204895 3.852844 -0.915527 60.00 60.00 8.4 8.4 1.888 1.653 32.9822 33.8067 0.0109 0.0000 0.005191 -1.429773 8.43 490 710 0.00 0.00 0.0000 0.0000
0.022 2 8.618872 0.352427 -2.500552 1.350403 1.792908 -0.869751 60.00 60.00 8.4 8.4 1.875 1.856 34.6736 35.5860 0.0121 0.0001 0.005191 -1.430711 8.43 490 720 0.00 0.00 0.0000 0.0000
0.023 2 10.117285 -0.908638 0.050347 1.579285 0.289917 -0.564575 60.00 60.00 8.4 8.4 2.059 1.641 35.5860 37.5630 0.0133 0.0001 0.005191 -1.436213 8.43 490 700 0.00 0.00 0.0000 0.0000
0.024 2 11.088257 -0.407568 5.219272 1.037598 0.640869 -0.236511 60.00 60.00 9.5 9.5 1.926 1.729 36.5478 38.6363 0.0143 0.0001 0.007786 -1.434465 9.51 510 750 0.00 0.00 0.0000 0.0000
0.025 2 10.066938 2.440615 1.090845 -1.487732 -0.816345 0.724792 60.00 60.00 9.5 9.5 1.894 1.957 38.6363 40.9779 0.0155 0.0001 0.007786 -1.431742 9.51 490 710 0.00 0.00 0.0000 0.0000
0.026 2 10.870088 -0.855894 0.002397 -2.075195 -0.007629 1.281738 60.00 60.00 9.5 9.5 2.059 1.622 42.2584 43.6216 0.0167 0.0001 0.007786 -1.433431 9.51 490 690 0.00 0.00 0.0000 0.0000
0.027 2 10.316274 -0.817534 0.903843 -2.487183 1.129150 0.724792 60.00 60.00 9.5 9.5 1.831 1.698 42.2584 45.0756 0.0179 0.0001 0.007786 -1.435274 9.51 490 710 0.00 0.00 0.0000 0.0000
0.028 2 10.625546 -0.954189 2.701938 -1.480103 1.960754 0.526428 60.00 60.00 9.5 9.5 1.818 1.767 45.0756 45.0756 0.0193 0.0001 0.005191 -1.434600 9.51 490 720 0.00 0.00 0.0000 0.0000
0.029 2 10.134068 -1.136396 4.209941 -0.907898 1.808167 0.190735 60.00 60.00 10.2 10.2 1.837 1.653 46.6300 48.2953 0.0207 0.0001 0.007786 -1.430901 10.20 510 750 0.00 0.00 0.0000 0.0000
0.030 2 10.261132 -0.469902 -1.431284 2.235413 -0.663757 0.061035 60.00 60.00 10.2 10.2 1.793 1.856 46.6300 50.0841 0.0219 0.0001 0.007786 -1.431135 10.20 490 720 0.00 0.00 0.0000 0.0000
0.031 2 9.978232 -2.092983 -0.316465 2.510071 0.549316 -0.793457 60.00 60.00 10.2 10.2 2.046 1.577 48.2953 50.0841 0.0235 0.0001 0.007786 -1.435588 10.20 490 720 0.00 0.00 0.0000 0.0000
0.032 2 10.771791 1.126807 4.396943 2.136230 1.243591 -1.304626 60.00 60.00 10.2 9.3 1.774 1.717 48.2953 52.0104 0.0247 0.0001 0.007786 -1.434726 10.20 490 720 0.00 0.00 0.0000 0.0000
0.033 2 10.153247 -2.589258 1.747749 1.502991 -0.503540 0.022888 60.00 60.00 10.2 9.3 1.989 1.527 50.0841 52.0104 0.0264 0.0002 0.007786 -1.431889 10.20 490 720 0.00 0.00 0.0000 0.0000
0.034 2 8.321587 2.948877 0.395581 -3.807068 -0.724792 1.525879 60.00 60.00 9.3 8.2 1.812 1.698 52.0104 54.0908 0.0280 0.0002 0.007786 -1.432493 10.35 510 740 0.00 0.00 0.0000 0.0000
0.035 2 11.831470 -1.344976 4.408930 -3.868103 1.358032 2.853394 60.00 60.00 8.2 8.2 1.850 1.432 54.0908 54.0908 0.0296 0.0002 0.007786 -1.431224 10.35 490 710 0.00 0.00 0.0000 0.0000
0.036 2 10.304287 -1.004536 -0.074321 -1.190186 0.587463 1.922607 60.00 60.00 8.2 5.6 1.558 1.242 54.0908 58.7943 0.0312 0.0002 0.007786 -1.430511 10.35 490 700 0.00 0.00 0.0000 0.0000
0.037 2 8.834643 -0.592173 -4.166787 1.625061 -0.434875 0.183105 60.00 60.00 5.6 5.6 1.381 0.912 58.7943 58.7943 0.0328 0.0002 0.007786 -1.437722 10.35 490 720 0.00 0.00 0.0000 0.0000
0.038 2 9.594639 -1.011729 3.610576 1.487732 2.540588 0.442505 60.00 60.00 5.6 5.6 1.033 0.703 58.7943 58.7943 0.0344 0.0002 0.007786 -1.441139 10.35 490 720 0.00 0.00 0.0000 0.0000
0.039 2 9.539496 1.723774 3.538652 -1.213074 3.570557 0.404358 60.00 60.00 5.6 5.6 0.804 0.500 58.7943 58.7943 0.0362 0.0002 0.010382 -1.436573 11.75 510 740 0.00 0.00 0.0000 0.0000
0.040 2 11.023525 1.026113 -1.620684 -2.700806 0.366211 -0.015259 60.00 60.00 5.6 5.6 0.475 0.431 58.7943 58.7943 0.0378 0.0002 0.010382 -1.437125 11.75 490 720 0.00 0.00 0.0000 0.0000
0.041 2 11.174565 -0.251733 -0.558608 -2.708435 -1.266479 -1.075745 60.00 60.00 5.6 4.2 0.317 0.310 58.7943 61.4668 0.0394 0.0003 0.010382 -1.441720 11.75 490 720 0.00 0.00 0.0000 0.0000
0.042 2 10.973178 -0.616147 3.481113 -1.373291 0.068665 -0.984192 60.00 60.00 5.6 4.2 0.291 0.196 58.7943 61.4668 0.0412 0.0003 0.007786 -1.441739 11.75 490 720 0.00 0.00 0.0000 0.0000
0.043 2 9.750473 -1.771724 6.561851 -0.205994 2.250671 -0.587463 60.00 60.00 5.6 5.6 0.272 0.032 58.7943 58.7943 0.0428 0.0003 0.007786 -1.435368 11.75 490 710 0.00 0.00 0.0000 0.0000
0.044 2 9.342905 -2.193677 1.649453 0.869751 1.586914 -0.396729 60.00 60.00 5.6 5.6 0.291 0.051 58.7943 58.7943 0.0445 0.0003 0.007786 -1.430421 11.83 510 740 0.00 0.00 0.0000 0.0000
0.045 2 11.292041 0.625737 -0.625737 2.029419 -0.473022 -0.602722 60.00 60.00 5.6 5.6 0.272 0.184 58.7943 58.7943 0.0461 0.0003 0.007786 -1.432009 11.83 490 720 0.00 0.00 0.0000 0.0000
0.046 2 10.989961 -2.558091 3.303701 3.631592 -0.503540 1.045227 60.00 60.00 5.6 5.6 0.234 0.215 58.7943 58.7943 0.0477 0.0003 0.007786 -1.432423 11.83 490 720 0.00 0.00 0.0000 0.0000
0.047 2 8.201714 0.683276 2.083394 1.083374 -0.205994 1.396179 60.00 60.00 5.6 7.0 0.209 0.203 58.7943 56.3446 0.0493 0.0003 0.007786 -1.429815 11.83 490 720 0.00 0.00 0.0000 0.0000
0.048 2 10.575200 0.175015 0.249336 0.900269 0.617981 1.960754 60.00 60.00 5.6 9.3 0.158 0.247 58.7943 52.0104 0.0511 0.0004 0.010382 -1.429906 11.83 490 720 0.00 0.00 0.0000 0.0000
0.049 2 10.016591 -1.843647 -0.582583 -0.106812 1.037598 3.921509 60.00 60.00 8.2 5.6 0.222 0.507 54.0908 58.7943 0.0529 0.0004 0.007786 -1.433024 11.64 510 740 0.00 0.00 0.0000 0.0000
0.050 2 9.079185 0.822329 -0.752803 -1.853943 -1.136780 3.837585 60.00 60.00 5.6 5.6 0.310 0.589 58.7943 58.7943 0.0545 0.0004 0.007786 -1.437147 11.64 490 720 0.00 0.00 0.0000 0.0000
0.051 2 11.275258 0.381196 2.035444 -5.172729 -0.511169 3.776550 60.00 60.00 5.6 5.6 0.469 0.393 58.7943 58.7943 0.0561 0.0004 0.007786 -1.438858 11.64 490 720 0.00 0.00 0.0000 0.0000
0.052 2 11.495825 2.927300 2.589258 -5.058289 -0.213623 2.624512 60.00 60.00 5.6 5.6 0.393 0.291 58.7943 58.7943 0.0577 0.0004 0.007786 -1.437515 11.64 490 720 0.00 0.00 0.0000 0.0000
0.053 2 10.148452 -1.531978 -0.263721 -2.677917 -1.068115 0.427246 60.00 60.00 5.6 4.2 0.260 0.241 58.7943 61.4668 0.0593 0.0004 0.007786 -1.438230 11.64 490 720 0.00 0.00 0.0000 0.0000
0.054 2 9.659369 -0.165425 0.774380 -0.503540 -1.625061 -1.091003 60.00 60.00 5.6 5.6 0.222 0.190 58.7943 58.7943 0.0609 0.0004 0.007786 -1.440343 11.90 510 740 0.00 0.00 0.0000 0.0000
0.055 2 11.210527 -1.395322 4.377764 -0.137329 0.221252 -1.251221 60.00 60.00 5.6 5.6 0.203 0.108 58.7943 58.7943 0.0628 0.0005 0.010382 -1.438460 11.90 490 720 0.00 0.00 0.0000 0.0000
0.056 2 9.975835 -0.553813 3.399600 -0.473022 0.885010 -0.137329 60.00 60.00 5.6 5.6 0.171 0.158 58.7943 58.7943 0.0644 0.0005 0.010382 -1.434133 11.90 490 720 0.00 0.00 0.0000 0.0000
0.057 2 9.839179 -2.162510 0.472300 0.480652 0.328064 1.289368 60.00 60.00 5.6 5.6 0.272 0.184 58.7943 58.7943 0.0660 0.0005 0.010382 -1.433102 11.90 490 720 0.00 0.00 0.0000 0.0000
0.058 2 10.158042 -2.258408 1.352168 1.388550 0.709534 2.304077 60.00 60.00 5.6 5.6 0.310 0.196 58.7943 58.7943 0.0676 0.0005 0.010382 -1.434034 11.90 490 720 0.00 0.00 0.0000 0.0000
0.059 2 9.496343 -0.774380 1.493618 1.289368 1.380920 1.388550 60.00 60.00 7.0 5.6 0.272 0.171 56.3446 58.7943 0.0694 0.0005 0.007786 -1.433869 11.80 510 750 0.00 0.00 0.0000 0.0000
0.060 2 9.748075 -0.968574 1.412104 1.083374 1.098633 0.724792 60.00 60.00 5.6 5.6 0.348 0.241 58.7943 58.7943 0.0710 0.0005 0.007786 -1.433590 11.80 490 720 0.00 0.00 0.0000 0.0000
0.061 2 10.007002 -0.227759 0.469902 -0.343323 0.122070 1.075745 60.00 60.00 5.6 5.6 0.329 0.203 58.7943 58.7943 0.0726 0.0005 0.007786 -1.434408 11.80 490 720 0.00 0.00 0.0000 0.0000
0.062 2 9.618613 1.371348 -0.572993 -1.831055 -0.244141 1.258850 60.00 60.00 5.6 5.6 0.253 0.215 58.7943 58.7943 0.0742 0.0006 0.007786 -1.437234 11.80 490 720 0.00 0.00 0.0000 0.0000
0.063 2 10.232363 1.570337 0.740815 -3.196716 0.068665 1.373291 60.00 60.00 5.6 5.6 0.247 0.209 58.7943 58.7943 0.0758 0.0006 0.007786 -1.439754 11.80 490 720 0.00 0.00 0.0000 0.0000
0.064 2 10.747817 1.409707 1.668633 -3.341675 -0.473022 0.640869 60.00 60.00 5.6 5.6 0.272 0.209 58.7943 58.7943 0.0776 0.0006 0.010382 -1.440112 11.82 510 740 0.00 0.00 0.0000 0.0000
0.065 2 10.565610 0.105488 1.335386 -2.853394 -0.686646 0.289917 60.00 60.00 5.6 5.6 0.310 0.203 58.7943 58.7943 0.0793 0.0006 0.010382 -1.439939 11.82 490 720 0.00 0.00 0.0000 0.0000
0.066 2 10.625546 -0.139053 2.088188 -2.029419 -0.328064 -0.793457 60.00 60.00 5.6 5.6 0.310 0.196 58.7943 58.7943 0.0809 0.0006 0.010382 -1.439373 11.82 490 720 0.00 0.00 0.0000 0.0000
0.067 2 10.352236 -0.935010 3.850322 -1.472473 1.129150 -0.671387 60.00 60.00 5.6 5.6 0.253 0.177 58.7943 58.7943 0.0825 0.0006 0.010382 -1.436522 11.82 490 720 0.00 0.00 0.0000 0.0000
0.068 2 9.282969 -1.438477 1.987495 -1.075745 1.083374 -0.099182 60.00 60.00 5.6 5.6 0.190 0.241 58.7943 58.7943 0.0841 0.0007 0.010382 -1.433548 11.82 490 720 0.00 0.00 0.0000 0.0000
0.069 2 9.944668 -1.920366 0.220566 0.137329 0.625610 1.647949 60.00 60.00 5.6 7.0 0.228 0.215 58.7943 56.3446 0.0857 0.0007 0.010382 -1.433943 11.77 510 740 0.00 0.00 0.0000 0.0000
0.070 2 10.740624 -2.637207 2.097778 1.594543 0.930786 2.510071 60.00 60.00 5.6 7.0 0.222 0.279 58.7943 56.3446 0.0873 0.0007 0.010382 -1.434510 11.77 490 720 0.00 0.00 0.0000 0.0000
0.071 2 10.009399 -1.424092 1.409707 1.533508 0.740051 1.968384 60.00 60.00 5.6 5.6 0.266 0.374 58.7943 58.7943 0.0889 0.0007 0.010382 -1.433899 11.77 490 720 0.00 0.00 0.0000 0.0000
0.072 2 9.539496 -0.306875 1.265859 -0.190735 1.121521 1.152039 60.00 60.00 7.0 5.6 0.291 0.393 56.3446 58.7943 0.0905 0.0007 0.010382 -1.433902 11.77 490 720 0.00 0.00 0.0000 0.0000
0.073 2 9.858359 1.143589 1.081255 -2.517700 0.770569 1.731873 60.00 60.00 7.0 5.6 0.412 0.323 56.3446 58.7943 0.0921 0.0007 0.010382 -1.434209 11.77 490 720 0.00 0.00 0.0000 0.0000
0.074 2 10.107695 0.527441 -1.018921 -3.067017 -0.358582 1.434326 60.00 60.00 5.6 5.6 0.475 0.260 58.7943 58.7943 0.0939 0.0008 0.012977 -1.436823 11.69 510 750 0.00 0.00 0.0000 0.0000
0.075 2 10.179619 0.683276 0.000000 -3.379822 -1.289368 0.907898 60.00 60.00 5.6 5.6 0.424 0.228 58.7943 58.7943 0.0955 0.0008 0.012977 -1.440485 11.69 490 690 0.00 0.00 0.0000 0.0000
0.076 2 11.692416 1.268257 2.960864 -4.219055 -0.389099 0.320435 60.00 60.00 7.0 5.6 0.304 0.215 56.3446 58.7943 0.0972 0.0008 0.012977 -1.440624 11.69 490 720 0.00 0.00 0.0000 0.0000
0.077 2 10.052553 1.340181 2.234433 -3.616333 -1.113892 -0.457764 60.00 60.00 7.0 5.6 0.355 0.228 56.3446 58.7943 0.0988 0.0008 0.012977 -1.438594 11.69 490 720 0.00 0.00 0.0000 0.0000
0.078 2 10.349838 -1.819673 1.160371 -2.494812 -0.526428 -0.762939 60.00 60.00 7.0 5.6 0.443 0.234 56.3446 58.7943 0.1004 0.0008 0.012977 -1.437954 11.69 490 720 0.00 0.00 0.0000 0.0000
0.079 2 10.503276 -0.009590 3.042378 -0.656128 0.701904 -1.571655 60.00 60.00 7.0 5.6 0.551 0.215 56.3446 58.7943 0.1022 0.0009 0.010382 -1.436686 11.71 510 750 0.00 0.00 0.0000 0.0000
0.080 2 9.690536 -1.882007 2.191279 1.251221 0.297546 -0.961304 60.00 60.00 7.0 5.6 0.570 0.241 56.3446 58.7943 0.1038 0.0009 0.010382 -1.434340 11.71 490 720 0.00 0.00 0.0000 0.0000
0.081 2 9.894321 -2.383076 0.517852 1.571655 0.053406 0.076294 60.00 60.00 7.0 5.6 0.532 0.209 56.3446 58.7943 0.1054 0.0009 0.010382 -1.434319 11.71 490 720 0.00 0.00 0.0000 0.0000
0.082 2 10.071733 -1.222705 1.781313 0.991821 0.839233 0.839233 60.00 60.00 7.0 7.0 0.513 0.209 56.3446 56.3446 0.1070 0.0009 0.010382 -1.434763 11.71 490 720 0.00 0.00 0.0000 0.0000
0.083 2 10.076528 -1.112422 2.601245 0.244141 1.914978 0.503540 60.00 60.00 5.6 5.6 0.519 0.272 58.7943 58.7943 0.1086 0.0009 0.010382 -1.433198 11.71 490 720 0.00 0.00 0.0000 0.0000
0.084 2 9.906308 0.115078 0.975767 -0.862122 0.946045 0.511169 60.00 60.00 5.6 5.6 0.450 0.342 58.7943 58.7943 0.1102 0.0009 0.010382 -1.432425 11.69 510 740 0.00 0.00 0.0000 0.0000
0.085 2 10.117285 0.390786 -0.946997 -1.510620 -0.701904 0.747681 60.00 60.00 5.6 5.6 0.298 0.310 58.7943 58.7943 0.1118 0.0010 0.010382 -1.435114 11.69 490 720 0.00 0.00 0.0000 0.0000
0.086 2 10.153247 0.323657 0.381196 -2.777100 -1.029968 0.503540 60.00 60.00 4.2 7.0 0.253 0.279 61.4668 56.3446 0.1136 0.0010 0.012977 -1.438369 11.69 490 730 0.00 0.00 0.0000 0.0000
0.087 2 10.560815 2.021060 1.846045 -3.906250 -1.075745 -0.396729 60.00 60.00 5.6 8.2 0.215 0.298 58.7943 54.0908 0.1151 0.0010 0.010382 -1.438924 11.69 490 720 0.00 0.00 0.0000 0.0000
0.088 2 11.018730 0.882266 2.119355 -3.936768 -1.327515 -1.083374 60.00 60.00 5.6 5.6 0.127 0.450 58.7943 58.7943 0.1169 0.0010 0.012977 -1.437961 11.69 490 720 0.00 0.00 0.0000 0.0000
0.089 2 9.529907 0.762393 -0.055142 -4.692078 -2.281189 -1.258850 60.00 60.00 5.6 5.6 0.203 0.494 58.7943 58.7943 0.1187 0.0010 0.010382 -1.438798 11.77 510 740 0.00 0.00 0.0000 0.0000
0.090 2 11.292041 -0.215771 1.651851 -2.960205 -0.839233 -1.220703 60.00 60.00 5.6 5.6 0.298 0.361 58.7943 58.7943 0.1203 0.0011 0.010382 -1.440058 11.77 490 710 0.00 0.00 0.0000 0.0000
0.091 2 10.443339 -2.450205 4.027734 -0.862122 0.129700 -0.854492 60.00 60.00 5.6 5.6 0.285 0.285 58.7943 58.7943 0.1219 0.0011 0.010382 -1.437570 11.77 490 710 0.00 0.00 0.0000 0.0000
0.092 2 8.961709 -1.323398 0.762393 0.625610 -0.549316 -0.495911 60.00 60.00 5.6 5.6 0.209 0.253 58.7943 58.7943 0.1235 0.0011 0.010382 -1.435727 11.77 490 720 0.00 0.00 0.0000 0.0000
0.093 2 9.894321 -2.212856 2.766670 1.205444 1.045227 -0.740051 60.00 60.00 5.6 4.2 0.222 0.215 58.7943 61.4668 0.1253 0.0011 0.012977 -1.434858 11.77 490 720 0.00 0.00 0.0000 0.0000
0.094 2 10.251543 -1.457656 2.435820 0.701904 0.961304 -0.480652 60.00 60.00 5.6 5.6 0.228 0.127 58.7943 58.7943 0.1269 0.0011 0.012977 -1.432523 11.77 510 740 0.00 0.00 0.0000 0.0000
0.095 2 9.949463 -0.654507 -0.839111 0.259399 -0.282288 0.053406 60.00 60.00 5.6 5.6 0.272 0.114 58.7943 58.7943 0.1285 0.0012 0.012977 -1.433778 11.77 490 720 0.00 0.00 0.0000 0.0000
0.096 2 10.244350 -0.508262 1.476836 -0.495911 -0.061035 -0.366211 60.00 60.00 5.6 5.6 0.298 0.139 58.7943 58.7943 0.1301 0.0012 0.012977 -1.435910 11.77 490 720 0.00 0.00 0.0000 0.0000
0.097 2 10.112490 1.203525 1.508003 -1.762390 -0.152588 -0.099182 60.00 60.00 5.6 5.6 0.279 0.184 58.7943 58.7943 0.1317 0.0012 0.012977 -1.435699 11.77 490 720 0.00 0.00 0.0000 0.0000
0.098 2 10.119682 0.932612 0.541826 -2.571106 -0.442505 -0.007629 60.00 60.00 5.6 5.6 0.215 0.171 58.7943 58.7943 0.1334 0.0012 0.012977 -1.436384 11.77 490 720 0.00 0.00 0.0000 0.0000
0.099 2 10.292299 1.263462 0.194194 -2.838135 -0.801086 0.183105 60.00 60.00 7.0 5.6 0.234 0.196 56.3446 58.7943 0.1350 0.0012 0.012977 -1.438340 11.75 510 740 0.00 0.00 0.0000 0.0000
0.100 2 10.136464 1.541567 1.143589 -2.807617 -0.465393 -0.473022 60.00 60.00 7.0 5.6 0.279 0.203 56.3446 58.7943 0.1366 0.0013 0.012977 -1.439675 11.75 490 720 0.00 0.00 0.0000 0.0000
0.101 2 10.426558 0.409966 3.042378 -2.166748 -0.152588 -1.502991 60.00 60.00 5.6 7.0 0.412 0.209 58.7943 56.3446 0.1382 0.0013 0.012977 -1.438353 11.75 490 720 0.00 0.00 0.0000 0.0000
0.102 2 10.541636 -0.803149 1.615889 -0.930786 -0.572205 -0.022888 60.00 60.00 5.6 5.6 0.469 0.260 58.7943 58.7943 0.1398 0.0013 0.012977 -1.436665 11.75 490 720 0.00 0.00 0.0000 0.0000
0.103 2 10.184414 -1.356963 0.951792 0.373840 -0.305176 0.122070 60.00 60.00 5.6 5.6 0.348 0.298 58.7943 58.7943 0.1416 0.0013 0.015573 -1.436900 11.75 490 720 0.00 0.00 0.0000 0.0000
0.104 2 9.652178 -2.193677 2.980044 1.533508 0.823975 -1.289368 60.00 60.00 5.6 5.6 0.234 0.317 58.7943 58.7943 0.1432 0.0014 0.015573 -1.435660 11.79 510 740 0.00 0.00 0.0000 0.0000
0.105 2 9.661767 -2.270396 2.589258 2.044678 1.800537 -1.296997 60.00 60.00 5.6 5.6 0.222 0.272 58.7943 58.7943 0.1448 0.0014 0.015573 -1.432755 11.79 490 720 0.00 0.00 0.0000 0.0000
0.106 2 9.817602 -1.443271 0.786367 1.335144 1.243591 -0.488281 60.00 60.00 5.6 5.6 0.215 0.190 58.7943 58.7943 0.1464 0.0014 0.015573 -1.432079 11.79 490 720 0.00 0.00 0.0000 0.0000
0.107 2 10.376210 -0.534634 0.736021 0.015259 0.404358 -0.053406 60.00 60.00 5.6 5.6 0.279 0.241 58.7943 58.7943 0.1480 0.0014 0.015573 -1.433319 11.79 490 720 0.00 0.00 0.0000 0.0000
0.108 2 10.503276 0.393184 1.117217 -1.228333 -0.305176 0.686646 60.00 60.00 5.6 7.0 0.285 0.215 58.7943 56.3446 0.1496 0.0015 0.015573 -1.434290 11.79 490 720 0.00 0.00 0.0000 0.0000
0.109 2 10.138862 0.882266 -0.098296 -2.014160 -1.365662 0.915527 60.00 60.00 5.6 5.6 0.253 0.260 58.7943 58.7943 0.1515 0.0015 0.012977 -1.436054 11.72 510 740 0.00 0.00 0.0000 0.0000
0.110 2 10.023784 1.644658 0.071924 -2.929688 -1.068115 -0.305176 60.00 60.00 7.0 5.6 0.209 0.342 56.3446 58.7943 0.1531 0.0015 0.012977 -1.438768 11.72 490 710 0.00 0.00 0.0000 0.0000
0.111 2 10.618354 1.929956 1.925161 -3.189087 -0.480652 -1.411438 60.00 60.00 7.0 4.2 0.266 0.272 56.3446 61.4668 0.1547 0.0015 0.012977 -1.439549 11.72 490 720 0.00 0.00 0.0000 0.0000
0.112 2 10.165234 0.954189 2.150522 -1.800537 -0.442505 -1.808167 60.00 60.00 7.0 5.6 0.405 0.146 56.3446 58.7943 0.1563 0.0015 0.012977 -1.438316 11.72 490 720 0.00 0.00 0.0000 0.0000
0.113 2 10.560815 -1.052485 1.364155 -0.762939 -0.808716 -1.487732 60.00 60.00 7.0 7.0 0.481 0.127 56.3446 56.3446 0.1581 0.0016 0.015573 -1.437614 11.72 490 720 0.00 0.00 0.0000 0.0000
0.114 2 10.949203 -0.002397 1.965918 0.152588 -0.251770 -1.403809 60.00 60.00 7.0 5.6 0.513 0.184 56.3446 58.7943 0.1597 0.0016 0.015573 -1.437230 11.64 510 740 0.00 0.00 0.0000 0.0000
0.115 2 9.644985 -1.416899 2.296767 0.793457 0.228882 -1.853943 60.00 60.00 7.0 5.6 0.557 0.317 56.3446 58.7943 0.1613 0.0016 0.015573 -1.435801 11.64 490 720 0.00 0.00 0.0000 0.0000
0.116 2 9.652178 -2.092983 2.289575 2.227783 0.816345 -1.495361 60.00 60.00 7.0 5.6 0.595 0.279 56.3446 58.7943 0.1629 0.0016 0.015573 -1.433844 11.64 490 720 0.00 0.00 0.0000 0.0000
0.117 2 9.851167 -3.104712 1.846045 3.479004 1.274109 0.137329 60.00 60.00 7.0 7.0 0.614 0.203 56.3446 56.3446 0.1645 0.0017 0.015573 -1.432398 11.64 490 720 0.00 0.00 0.0000 0.0000
0.118 2 9.884731 -0.793560 0.489082 3.173828 0.930786 0.663757 60.00 60.00 5.6 5.6 0.545 0.291 58.7943 58.7943 0.1661 0.0017 0.015573 -1.432796 11.64 490 720 0.00 0.00 0.0000 0.0000
0.119 2 10.361826 -0.599365 1.771724 2.113342 0.785828 0.213623 60.00 60.00 5.6 5.6 0.424 0.348 58.7943 58.7943 0.1677 0.0017 0.015573 -1.433347 11.69 510 740 0.00 0.00 0.0000 0.0000
0.120 2 10.404980 0.700059 1.484028 1.548767 -0.671387 0.137329 60.00 60.00 5.6 5.6 0.336 0.317 58.7943 58.7943 0.1694 0.0017 0.015573 -1.432989 11.69 490 720 0.00 0.00 0.0000 0.0000
0.121 2 9.836782 1.388130 0.033564 -0.686646 -1.548767 1.281738 60.00 60.00 5.6 5.6 0.361 0.241 58.7943 58.7943 0.1710 0.0018 0.015573 -1.434300 11.69 490 710 0.00 0.00 0.0000 0.0000
0.122 2 10.913241 2.212856 1.793301 -2.731323 -0.640869 0.053406 60.00 60.00 5.6 5.6 0.310 0.215 58.7943 58.7943 0.1728 0.0018 0.012977 -1.435376 11.69 490 720 0.00 0.00 0.0000 0.0000
0.123 2 10.805356 1.145986 0.601763 -3.150940 -1.274109 -0.823975 60.00 60.00 5.6 5.6 0.196 0.203 58.7943 58.7943 0.1744 0.0018 0.012977 -1.435910 11.69 490 710 0.00 0.00 0.0000 0.0000
0.124 2 9.589844 0.246938 -0.664097 -2.090454 -1.907349 0.305176 60.00 60.00 5.6 5.6 0.234 0.241 58.7943 58.7943 0.1762 0.0018 0.015573 -1.438743 11.77 510 750 0.00 0.00 0.0000 0.0000
0.125 2 10.066938 -1.953931 3.665718 -0.778198 -0.518799 0.946045 60.00 60.00 5.6 5.6 0.228 0.215 58.7943 58.7943 0.1778 0.0019 0.015573 -1.438605 11.77 490 720 0.00 0.00 0.0000 0.0000
0.126 2 10.846113 0.299683 3.859912 0.495911 0.366211 0.152588 60.00 60.00 5.6 5.6 0.260 0.241 58.7943 58.7943 0.1794 0.0019 0.015573 -1.434381 11.77 490 720 0.00 0.00 0.0000 0.0000
0.127 2 10.265927 -1.083652 -0.314067 2.082825 -0.686646 -0.656128 60.00 60.00 5.6 5.6 0.266 0.241 58.7943 58.7943 0.1810 0.0019 0.015573 -1.434003 11.77 490 720 0.00 0.00 0.0000 0.0000
0.128 2 9.318931 -2.018662 0.455518 3.059387 -0.823975 -0.312805 60.00 60.00 5.6 5.6 0.317 0.234 58.7943 58.7943 0.1826 0.0019 0.015573 -1.436544 11.77 490 720 0.00 0.00 0.0000 0.0000
0.129 2 9.522715 -2.176894 2.996826 3.486633 1.365662 1.296997 60.00 60.00 5.6 7.0 0.203 0.190 58.7943 56.3446 0.1842 0.0020 0.015573 -1.435695 11.71 510 740 0.00 0.00 0.0000 0.0000
0.130 2 10.560815 -0.759995 3.636948 3.021240 2.769470 0.946045 60.00 60.00 5.6 7.0 0.184 0.272 58.7943 56.3446 0.1859 0.0020 0.015573 -1.432032 11.71 490 720 0.00 0.00 0.0000 0.0000
0.131 2 10.244350 -1.227500 0.465107 2.883911 1.693726 1.281738 60.00 60.00 5.6 5.6 0.177 0.405 58.7943 58.7943 0.1875 0.0020 0.015573 -1.431008 11.71 490 720 0.00 0.00 0.0000 0.0000
0.132 2 9.184672 0.479492 -1.920366 1.762390 -1.045227 3.997803 60.00 60.00 5.6 5.6 0.228 0.374 58.7943 58.7943 0.1891 0.0020 0.015573 -1.435362 11.71 490 720 0.00 0.00 0.0000 0.0000
0.133 2 11.030718 1.133999 0.997344 0.511169 0.000000 3.494263 60.00 60.00 5.6 5.6 0.222 0.291 58.7943 58.7943 0.1909 0.0021 0.012977 -1.439201 11.71 490 700 0.00 0.00 0.0000 0.0000
0.134 2 10.217978 1.467246 2.431025 -0.595093 0.793457 0.427246 60.00 60.00 7.0 7.0 0.241 0.253 56.3446 56.3446 0.1925 0.0021 0.012977 -1.438594 11.82 510 740 0.00 0.00 0.0000 0.0000
0.135 2 9.647383 1.253872 0.151040 -0.900269 -0.518799 -0.015259 60.00 60.00 7.0 5.6 0.361 0.298 56.3446 58.7943 0.1943 0.0021 0.015573 -1.438742 11.82 490 720 0.00 0.00 0.0000 0.0000
0.136 2 10.654316 0.479492 1.491221 -0.732422 -1.113892 0.167847 60.00 60.00 5.6 5.6 0.469 0.298 58.7943 58.7943 0.1959 0.0021 0.015573 -1.439839 11.82 490 720 0.00 0.00 0.0000 0.0000
0.137 2 10.925229 -0.151040 2.630015 0.556946 -0.205994 -0.640869 60.00 60.00 5.6 5.6 0.443 0.228 58.7943 58.7943 0.1975 0.0022 0.015573 -1.438728 11.82 490 720 0.00 0.00 0.0000 0.0000
0.138 2 10.359428 -1.635068 1.937148 2.220154 0.183105 -1.083374 60.00 60.00 5.6 5.6 0.291 0.253 58.7943 58.7943 0.1991 0.0022 0.015573 -1.437174 11.82 490 720 0.00 0.00 0.0000 0.0000
0.139 2 9.791230 -1.380937 1.054883 2.899170 -0.846863 -0.427246 60.00 60.00 5.6 5.6 0.247 0.209 58.7943 58.7943 0.2007 0.0022 0.015573 -1.436933 11.72 510 740 0.00 0.00 0.0000 0.0000
0.140 2 10.277915 -2.282383 2.610835 4.539490 0.289917 0.022888 60.00 60.00 5.6 4.2 0.247 0.209 58.7943 61.4668 0.2023 0.0022 0.015573 -1.436063 11.72 490 720 0.00 0.00 0.0000 0.0000
0.141 2 8.309599 -1.519990 2.951274 3.402710 1.571655 0.579834 60.00 60.00 5.6 5.6 0.247 0.133 58.7943 58.7943 0.2040 0.0023 0.015573 -1.432873 11.72 490 720 0.00 0.00 0.0000 0.0000
0.142 2 10.491289 1.275449 0.400376 2.593994 0.854492 0.335693 60.00 60.00 5.6 5.6 0.304 0.139 58.7943 58.7943 0.2056 0.0023 0.015573 -1.431826 11.72 490 720 0.00 0.00 0.0000 0.0000
0.143 2 12.001689 -2.354306 0.824727 3.013611 -0.144958 2.014160 60.00 60.00 5.6 8.2 0.310 0.177 58.7943 54.0908 0.2072 0.0023 0.015573 -1.433515 11.72 490 710 0.00 0.00 0.0000 0.0000
0.144 2 10.035771 0.484287 -0.815137 1.960754 -2.426147 2.182007 60.00 60.00 5.6 5.6 0.279 0.329 58.7943 58.7943 0.2090 0.0023 0.018168 -1.436378 11.69 510 750 0.00 0.00 0.0000 0.0000
0.145 2 9.738486 0.915830 1.457656 0.305176 -0.915527 2.243042 60.00 60.00 5.6 5.6 0.253 0.431 58.7943 58.7943 0.2106 0.0024 0.018168 -1.438400 11.69 490 720 0.00 0.00 0.0000 0.0000
0.146 2 9.772051 1.531978 3.994170 -0.816345 1.358032 0.503540 60.00 60.00 7.0 4.2 0.241 0.329 56.3446 61.4668 0.2122 0.0024 0.018168 -1.435705 11.69 490 720 0.00 0.00 0.0000 0.0000
0.147 2 9.935078 0.743213 -0.517852 0.137329 0.785828 -0.709534 60.00 60.00 7.0 5.6 0.310 0.203 56.3446 58.7943 0.2138 0.0024 0.018168 -1.435036 11.69 490 720 0.00 0.00 0.0000 0.0000
0.148 2 10.910845 0.182207 -1.416899 1.014709 -1.487732 -0.846863 60.00 60.00 7.0 5.6 0.418 0.127 56.3446 58.7943 0.2156 0.0025 0.015573 -1.439524 11.69 490 730 0.00 0.00 0.0000 0.0000
0.149 2 10.999551 -0.421953 2.764272 1.892090 -1.213074 0.175476 60.00 60.00 7.0 5.6 0.589 0.152 56.3446 58.7943 0.2172 0.0025 0.015573 -1.440988 11.66 510 740 0.00 0.00 0.0000 0.0000
0.150 2 9.999809 -1.193936 4.061299 2.723694 0.335693 0.450134 60.00 60.00 7.0 5.6 0.488 0.171 56.3446 58.7943 0.2188 0.0025 0.015573 -1.437308 11.66 490 710 0.00 0.00 0.0000 0.0000
0.151 2 9.609023 -2.172100 2.313550 3.730774 1.174927 0.656128 60.00 60.00 7.0 5.6 0.519 0.234 56.3446 58.7943 0.2206 0.0025 0.018168 -1.433779 11.66 490 720 0.00 0.00 0.0000 0.0000
0.152 2 9.544291 -2.270396 1.105229 4.890442 1.541138 0.495911 60.00 60.00 5.6 5.6 0.519 0.146 58.7943 58.7943 0.2223 0.0026 0.018168 -1.432988 11.66 490 710 0.00 0.00 0.0000 0.0000
0.153 2 9.831987 -2.013867 0.795957 5.226135 1.457214 0.953674 60.00 60.00 5.6 5.6 0.513 0.196 58.7943 58.7943 0.2239 0.0026 0.018168 -1.433750 11.66 490 720 0.00 0.00 0.0000 0.0000
0.154 2 10.122080 -0.738418 1.460054 4.165649 1.167297 1.602173 60.00 60.00 5.6 5.6 0.329 0.234 58.7943 58.7943 0.2255 0.0026 0.018168 -1.434223 11.69 510 740 0.00 0.00 0.0000 0.0000
0.155 2 10.565610 0.318862 1.083652 2.937317 0.221252 1.190186 60.00 60.00 5.6 5.6 0.241 0.241 58.7943 58.7943 0.2271 0.0027 0.018168 -1.434484 11.69 490 710 0.00 0.00 0.0000 0.0000
0.156 2 10.004604 0.664097 -0.088706 1.609802 -0.831604 0.610352 60.00 60.00 5.6 5.6 0.241 0.209 58.7943 58.7943 0.2287 0.0027 0.018168 -1.436265 11.69 490 710 0.00 0.00 0.0000 0.0000
0.157 2 9.983027 1.452861 0.314067 0.473022 -0.473022 0.488281 60.00 60.00 5.6 5.6 0.247 0.215 58.7943 58.7943 0.2305 0.0027 0.015573 -1.438716 11.69 490 720 0.00 0.00 0.0000 0.0000
0.158 2 10.476904 1.635068 1.747749 -0.335693 -0.190735 -0.633240 60.00 60.00 5.6 5.6 0.253 0.222 58.7943 58.7943 0.2321 0.0027 0.015573 -1.439390 11.69 490 720 0.00 0.00 0.0000 0.0000
0.159 2 10.584789 0.764790 1.277847 0.869751 -0.831604 -0.541687 60.00 60.00 5.6 5.6 0.323 0.234 58.7943 58.7943 0.2337 0.0028 0.015573 -1.439174 11.77 510 740 0.00 0.00 0.0000 0.0000
0.160 2 10.354633 0.407568 1.589517 1.831055 -1.686096 -1.052856 60.00 60.00 5.6 5.6 0.279 0.234 58.7943 58.7943 0.2353 0.0028 0.015573 -1.439105 11.77 490 720 0.00 0.00 0.0000 0.0000
0.161 2 11.368759 -0.541826 3.301304 4.104614 -1.091003 -1.373291 60.00 60.00 5.6 8.2 0.215 0.203 58.7943 54.0908 0.2371 0.0028 0.018168 -1.437430 11.77 490 720 0.00 0.00 0.0000 0.0000
0.162 2 8.618872 -1.738159 3.567422 3.158569 0.205994 -1.419067 60.00 60.00 5.6 5.6 0.184 0.323 58.7943 58.7943 0.2387 0.0029 0.018168 -1.433395 11.77 490 720 0.00 0.00 0.0000 0.0000
0.163 2 10.047758 -0.210977 -0.275708 3.494263 0.152588 -0.480652 60.00 60.00 5.6 5.6 0.222 0.437 58.7943 58.7943 0.2404 0.0029 0.018168 -1.432499 11.77 490 720 0.00 0.00 0.0000 0.0000
0.164 2 10.810151 -4.758960 1.347373 5.493164 0.724792 0.221252 60.00 60.00 5.6 5.6 0.247 0.310 58.7943 58.7943 0.2420 0.0029 0.018168 -1.434274 11.74 510 740 0.00 0.00 0.0000 0.0000
0.165 2 8.621269 -2.095381 1.014126 4.547119 0.556946 0.282288 60.00 60.00 5.6 5.6 0.291 0.272 58.7943 58.7943 0.2436 0.0029 0.018168 -1.434579 11.74 490 720 0.00 0.00 0.0000 0.0000
0.166 2 10.623149 -1.563144 1.539170 2.845764 0.396729 1.129150 60.00 60.00 5.6 5.6 0.247 0.234 58.7943 58.7943 0.2452 0.0030 0.018168 -1.434684 11.74 490 720 0.00 0.00 0.0000 0.0000
0.167 2 11.637275 0.465107 3.653730 1.220703 1.152039 2.342224 60.00 60.00 5.6 5.6 0.222 0.222 58.7943 58.7943 0.2468 0.0030 0.018168 -1.432929 11.74 490 720 0.00 0.00 0.0000 0.0000
0.168 2 9.352495 0.764790 -1.191538 0.579834 -1.739502 4.066467 60.00 60.00 5.6 5.6 0.228 0.203 58.7943 58.7943 0.2484 0.0030 0.018168 -1.433907 11.74 490 720 0.00 0.00 0.0000 0.0000
0.169 2 9.901513 0.975767 -1.905981 -0.511169 -2.449036 2.731323 60.00 60.00 5.6 7.0 0.215 0.234 58.7943 56.3446 0.2502 0.0031 0.015573 -1.439791 11.72 510 750 0.00 0.00 0.0000 0.0000
0.170 2 11.023525 2.534116 3.469126 -0.534058 -0.518799 0.808716 60.00 60.00 7.0 5.6 0.209 0.298 56.3446 58.7943 0.2520 0.0031 0.018168 -1.441275 11.72 490 720 0.00 0.00 0.0000 0.0000
0.171 2 10.428955 -0.544224 2.387871 0.778198 -0.518799 0.221252 60.00 60.00 5.6 5.6 0.291 0.291 58.7943 58.7943 0.2536 0.0031 0.018168 -1.438601 11.72 490 710 0.00 0.00 0.0000 0.0000
0.172 2 9.963847 0.151040 -0.541826 1.396179 -2.410889 -0.610352 60.00 60.00 5.6 5.6 0.412 0.253 58.7943 58.7943 0.2552 0.0032 0.018168 -1.439553 11.72 490 720 0.00 0.00 0.0000 0.0000
0.173 2 10.472109 -0.529839 2.176894 1.762390 -1.068115 -1.945496 60.00 60.00 5.6 5.6 0.374 0.247 58.7943 58.7943 0.2568 0.0032 0.018168 -1.440691 11.72 490 720 0.00 0.00 0.0000 0.0000
0.174 2 10.395391 -2.385473 4.123633 3.410339 0.701904 -2.265930 60.00 60.00 5.6 5.6 0.253 0.260 58.7943 58.7943 0.2585 0.0032 0.018168 -1.437502 11.74 510 740 0.00 0.00 0.0000 0.0000
0.175 2 9.637793 -3.243765 0.397979 4.905701 -0.572205 -0.846863 60.00 60.00 5.6 4.2 0.222 0.222 58.7943 61.4668 0.2601 0.0032 0.018168 -1.435992 11.74 490 720 0.00 0.00 0.0000 0.0000
0.176 2 9.894321 -1.941943 1.400117 4.722595 -0.862122 -1.304626 60.00 60.00 5.6 5.6 0.241 0.095 58.7943 58.7943 0.2617 0.0033 0.018168 -1.436874 11.74 490 720 0.00 0.00 0.0000 0.0000
0.177 2 10.361826 -0.973369 4.042119 3.768921 0.343323 -1.747131 60.00 60.00 5.6 5.6 0.260 0.127 58.7943 58.7943 0.2633 0.0033 0.018168 -1.434456 11.74 490 720 0.00 0.00 0.0000 0.0000
0.178 2 10.114887 -0.347632 1.337783 2.326965 0.045776 -2.235413 60.00 60.00 5.6 5.6 0.260 0.152 58.7943 58.7943 0.2649 0.0033 0.018168 -1.432168 11.74 490 720 0.00 0.00 0.0000 0.0000
0.179 2 9.695332 0.350029 -1.965918 0.411987 -2.250671 -0.938416 60.00 60.00 5.6 5.6 0.342 0.215 58.7943 58.7943 0.2667 0.0034 0.020764 -1.435611 11.72 510 750 0.00 0.00 0.0000 0.0000
0.180 2 10.371416 1.611094 0.378799 -0.740051 -2.349854 1.274109 60.00 60.00 5.6 9.3 0.285 0.184 58.7943 52.0104 0.2683 0.0034 0.020764 -1.439947 11.72 490 720 0.00 0.00 0.0000 0.0000
0.181 2 10.735829 1.038101 3.771206 -1.144409 -0.686646 1.846313 60.00 60.00 5.6 5.6 0.241 0.380 58.7943 58.7943 0.2699 0.0034 0.020764 -1.438858 11.72 490 720 0.00 0.00 0.0000 0.0000
0.182 2 9.875141 0.632930 0.426748 -1.800537 -1.472473 0.244141 60.00 60.00 7.0 5.6 0.209 0.526 56.3446 58.7943 0.2715 0.0035 0.020764 -1.437717 11.72 490 720 0.00 0.00 0.0000 0.0000
0.183 2 10.539238 0.220566 -0.858291 -0.930786 -2.113342 -0.236511 60.00 60.00 7.0 5.6 0.317 0.393 56.3446 58.7943 0.2731 0.0035 0.020764 -1.440760 11.72 490 720 0.00 0.00 0.0000 0.0000
0.184 2 10.438544 -1.397720 2.939287 0.457764 -1.266479 -0.068665 60.00 60.00 7.0 5.6 0.431 0.253 56.3446 58.7943 0.2747 0.0035 0.020764 -1.441451 11.66 510 740 0.00 0.00 0.0000 0.0000
0.185 2 9.877539 -1.074062 3.126289 1.350403 -0.556946 0.633240 60.00 60.00 5.6 5.6 0.526 0.228 58.7943 58.7943 0.2764 0.0036 0.020764 -1.438275 11.66 490 720 0.00 0.00 0.0000 0.0000
0.186 2 9.822397 -1.862827 2.320742 1.754761 -0.328064 1.480103 60.00 60.00 5.6 5.6 0.469 0.228 58.7943 58.7943 0.2780 0.0036 0.020764 -1.435575 11.66 490 720 0.00 0.00 0.0000 0.0000
0.187 2 10.381005 -2.016265 1.157974 2.624512 -0.923157 1.129150 60.00 60.00 5.6 7.0 0.367 0.215 58.7943 56.3446 0.2798 0.0036 0.023359 -1.434866 11.66 490 720 0.00 0.00 0.0000 0.0000
0.188 2 10.198798 -2.404653 1.395322 3.280640 -0.862122 0.343323 60.00 60.00 5.6 5.6 0.272 0.272 58.7943 58.7943 0.2816 0.0037 0.020764 -1.435127 11.66 490 720 0.00 0.00 0.0000 0.0000
0.189 2 9.932680 -0.932612 1.790903 2.677917 -0.770569 1.892090 60.00 60.00 5.6 5.6 0.291 0.317 58.7943 58.7943 0.2832 0.0037 0.020764 -1.434716 11.68 510 740 0.00 0.00 0.0000 0.0000
0.190 2 9.851167 -0.222964 1.519990 0.999451 -0.801086 0.732422 60.00 60.00 5.6 5.6 0.247 0.279 58.7943 58.7943 0.2848 0.0037 0.020764 -1.434142 11.68 490 710 0.00 0.00 0.0000 0.0000
0.191 2 10.100503 0.513057 0.520249 -0.793457 -1.167297 0.587463 60.00 60.00 5.6 5.6 0.260 0.266 58.7943 58.7943 0.2864 0.0038 0.020764 -1.434840 11.68 490 710 0.00 0.00 0.0000 0.0000
0.192 2 10.404980 0.946997 -0.381196 -2.151489 -2.250671 2.082825 60.00 60.00 5.6 5.6 0.247 0.222 58.7943 58.7943 0.2880 0.0038 0.020764 -1.437414 11.68 490 720 0.00 0.00 0.0000 0.0000
0.193 2 10.577598 1.129204 1.052485 -2.883911 -2.662659 2.014160 60.00 60.00 7.0 4.2 0.241 0.203 56.3446 61.4668 0.2896 0.0038 0.020764 -1.439479 11.68 490 720 0.00 0.00 0.0000 0.0000
0.194 2 10.282710 0.726431 2.018662 -2.861023 -2.388000 0.137329 60.00 60.00 7.0 9.3 0.336 0.133 56.3446 52.0104 0.2914 0.0039 0.023359 -1.439221 11.72 510 750 0.00 0.00 0.0000 0.0000
0.195 2 10.695073 -0.903843 1.565542 -1.846313 -3.227234 -0.953674 60.00 60.00 7.0 5.6 0.507 0.260 56.3446 58.7943 0.2930 0.0039 0.023359 -1.438517 11.72 490 720 0.00 0.00 0.0000 0.0000
0.196 2 10.953999 -0.870278 3.303701 -0.312805 -3.051758 -2.563477 60.00 60.00 5.6 5.6 0.519 0.374 58.7943 58.7943 0.2947 0.0040 0.023359 -1.436851 11.72 490 720 0.00 0.00 0.0000 0.0000
0.197 2 10.071733 -1.337783 4.099658 1.686096 -2.441406 -1.609802 60.00 60.00 5.6 5.6 0.443 0.317 58.7943 58.7943 0.2963 0.0040 0.023359 -1.432823 11.72 490 710 0.00 0.00 0.0000 0.0000
0.198 2 10.366621 -1.709390 0.568198 1.838684 -2.220154 -1.205444 60.00 60.00 5.6 5.6 0.361 0.266 58.7943 58.7943 0.2979 0.0040 0.023359 -1.431226 11.72 490 720 0.00 0.00 0.0000 0.0000
0.199 2 9.412432 -2.004277 -1.522388 1.716614 -2.838135 0.007629 60.00 60.00 5.6 7.0 0.266 0.209 58.7943 56.3446 0.2995 0.0041 0.023359 -1.435079 11.66 510 740 0.00 0.00 0.0000 0.0000
0.200 4 10.136464 -2.476577 2.579668 1.312256 -1.541138 0.358582 0.00 0.00 -11.7 -11.7 0.228 0.285 58.7943 58.7943 0.3011 0.0041 0.023359 -1.436925 11.66 490 820 0.00 0.00 0.0000 0.0000
0.201 4 10.390595 -0.659302 4.711010 0.053406 -0.846863 0.015259 0.00 0.00 -11.7 -11.7 -0.469 -0.329 58.7943 58.7943 0.3027 0.0041 0.023359 -1.432914 11.66 490 770 0.00 0.00 0.0000 0.0000
0.202 4 10.062143 0.124668 0.023975 -0.907898 -2.403259 0.785828 0.00 0.00 -11.7 -11.7 -2.185 -1.824 56.3446 58.7943 0.3043 0.0042 0.023359 -1.431434 11.66 490 710 0.00 0.00 0.0000 0.0000
0.203 4 10.891665 0.134258 -1.503208 -2.410889 -4.287720 0.686646 0.00 0.00 -11.7 -11.7 -2.464 -2.128 54.0908 54.0908 0.3059 0.0042 0.023359 -1.435586 11.66 490 700 0.00 0.00 0.0000 0.0000
0.204 4 11.435888 0.846304 0.242144 -3.677368 -6.431580 1.251221 0.00 0.00 -5.0 -5.0 -2.445 -2.128 52.0104 50.0841 0.3073 0.0043 0.025955 -1.439504 4.97 510 740 0.00 0.00 0.0000 0.0000
0.205 4 10.273120 2.315947 3.627358 -5.531311 -5.615234 2.044678 0.00 0.00 -5.0 -5.0 -2.293 -2.128 48.2953 50.0841 0.3087 0.0043 0.023359 -1.438638 4.97 490 720 0.00 0.00 0.0000 0.0000
0.206 4 7.098882 0.040757 3.943823 -6.362915 -3.829956 5.310059 0.00 0.00 -5.0 -5.0 -2.325 -2.128 46.6300 46.6300 0.3099 0.0043 0.023359 -1.432955 4.97 490 720 0.00 0.00 0.0000 0.0000
0.207 4 11.917778 -0.642520 -1.416899 -3.486633 -2.357483 4.203796 0.00 0.00 -5.0 -5.0 -2.496 -2.097 43.6216 42.2584 0.3113 0.0044 0.025955 -1.431889 4.97 490 710 0.00 0.00 0.0000 0.0000
0.208 4 13.497705 -0.067129 -0.848701 -2.151489 -1.510620 0.305176 0.00 0.00 -5.0 -5.0 -2.255 -2.128 38.6363 43.6216 0.3124 0.0044 0.023359 -1.436466 4.97 490 720 0.00 0.00 0.0000 0.0000
0.209 4 7.446514 -3.974990 3.634551 -0.793457 -3.120422 -1.846313 0.00 0.00 -5.2 -5.2 -2.337 -2.116 38.6363 40.9779 0.3134 0.0044 0.025955 -1.435292 5.16 510 750 0.00 0.00 0.0000 0.0000
0.210 4 8.578115 0.994946 -0.187002 1.014709 -2.899170 -1.564026 0.00 0.00 -5.2 -5.2 -2.445 -2.052 36.5478 38.6363 0.3146 0.0044 0.025955 -1.433747 5.16 490 710 0.00 0.00 0.0000 0.0000
0.211 4 11.574941 -6.343681 6.487529 3.715515 -0.511169 -0.328064 0.00 0.00 -5.2 -5.2 -2.166 -2.128 34.6736 36.5478 0.3154 0.0045 0.025955 -1.431648 5.16 490 720 0.00 0.00 0.0000 0.0000
0.212 4 11.114629 -0.091104 1.774121 1.434326 -3.448486 -0.114441 0.00 0.00 -5.2 -5.2 -2.249 -2.128 32.9822 33.8067 0.3162 0.0045 0.025955 -1.427813 5.16 490 710 0.00 0.00 0.0000 0.0000
0.213 4 9.105556 0.558608 -1.376143 -0.480652 -7.324219 0.434875 0.00 0.00 -5.2 -5.2 -2.325 -2.014 28.7717 28.7717 0.3172 0.0045 0.028550 -1.430655 5.16 490 720 0.00 0.00 0.0000 0.0000
0.214 4 10.615956 0.596968 2.965659 -2.243042 -5.455017 0.679016 0.00 0.00 -5.1 -5.1 -2.401 -2.046 25.0420 27.0454 0.3178 0.0045 0.025955 -1.432329 5.06 510 740 0.00 0.00 0.0000 0.0000
0.215 4 11.526992 1.395322 0.568198 -2.334595 -2.555847 1.197815 0.00 0.00 -5.1 -5.1 -2.160 -2.128 23.7240 24.5867 0.3184 0.0045 0.028550 -1.431955 5.06 490 720 0.00 0.00 0.0000 0.0000
0.216 4 10.095708 -0.997344 1.153179 -3.959656 -4.158020 1.319885 0.00 0.00 -5.1 -5.1 -2.223 -2.128 22.1684 22.5378 0.3192 0.0046 0.028550 -1.433149 5.06 490 710 0.00 0.00 0.0000 0.0000
0.217 4 9.223032 2.963262 0.664097 -6.278992 -3.524780 0.709534 0.00 0.00 -5.1 -5.1 -2.211 -2.008 20.4889 20.8041 0.3196 0.0046 0.028550 -1.434103 5.06 490 710 0.00 0.00 0.0000 0.0000
0.218 4 8.918554 -1.589517 0.232554 -3.227234 -3.868103 0.259399 0.00 0.00 -5.1 -5.1 -2.325 -2.021 17.7930 18.7815 0.3200 0.0046 0.028550 -1.435904 5.06 490 740 0.00 0.00 0.0000 0.0000
0.219 4 9.652178 -1.174756 1.826865 -1.060486 -1.998901 -0.259399 0.00 0.00 -5.4 -5.4 -2.331 -2.078 14.8601 16.9034 0.3204 0.0046 0.028550 -1.436516 5.41 510 750 0.00 0.00 0.0000 0.0000
0.220 4 10.716650 -0.201387 3.296509 -1.266479 -1.289368 0.007629 0.00 0.00 -5.4 -5.4 -2.280 -2.078 13.5227 16.0984 0.3208 0.0046 0.028550 -1.434396 5.41 490 730 0.00 0.00 0.0000 0.0000
0.221 4 10.867690 -1.309014 -1.294629 -1.983643 -4.707336 0.297546 0.00 0.00 -5.4 -5.4 -2.065 -2.078 10.8182 12.4061 0.3212 0.0046 0.028550 -1.435368 5.41 490 730 0.00 0.00 0.0000 0.0000
0.222 4 10.225170 -0.465107 -1.340181 -2.845764 -7.011414 0.915527 0.00 0.00 -5.4 -5.4 -2.122 -2.128 8.5048 9.0756 0.3216 0.0046 0.028550 -1.440615 5.41 490 740 0.00 0.00 0.0000 0.0000
0.223 4 10.409775 -1.388130 7.762978 -1.472473 -1.930237 1.007080 0.00 0.00 -5.4 -5.4 -2.242 -2.128 8.5048 9.0756 0.3216 0.0046 0.028550 -1.438216 5.41 490 730 0.00 0.00 0.0000 0.0000
0.224 4 10.304287 0.000000 4.166787 -1.632690 0.205994 0.625610 0.00 0.00 -5.8 -5.8 -2.192 -2.122 6.5327 5.9310 0.3216 0.0046 0.028550 -1.430708 5.84 510 830 0.00 0.00 0.0000 0.0000
0.225 4 9.841577 0.050347 -5.583686 -1.686096 -4.150391 0.549316 0.00 0.00 -5.8 -5.8 -2.204 -2.097 4.4337 4.1481 0.3216 0.0046 0.028550 -1.434821 5.84 490 810 0.00 0.00 0.0000 0.0000
0.226 4 10.244350 -1.126807 0.266118 -2.174377 -4.631042 0.251770 0.00 0.00 -5.8 -5.4 -2.223 -2.071 3.8526 3.1743 0.3218 0.0046 0.025955 -1.442442 5.84 490 820 0.00 0.00 0.0000 0.0000
0.227 4 10.196401 -0.575391 8.590102 -0.129700 -0.343323 0.450134 0.00 0.00 2.3 -4.8 -2.280 -2.033 -13.3888 2.5709 0.3216 0.0046 0.028550 -1.437837 5.84 490 780 0.00 0.00 0.0000 0.0000
0.228 4 11.375952 -0.870278 2.630015 0.373840 -1.655579 0.358582 0.00 0.00 0.8 -4.4 -1.679 -2.002 -8.8384 2.1602 0.3216 0.0046 0.028550 -1.431306 5.84 490 770 0.00 0.00 0.0000 0.0000
0.229 4 9.613818 1.858032 -6.640966 -0.900269 -5.699158 -0.404358 0.00 0.00 -2.0 -2.0 -0.513 -2.116 -5.3030 -2.0709 0.3214 0.0046 0.025955 -1.437868 10.54 510 840 0.00 0.00 0.0000 0.0000
0.230 4 8.616474 -1.455259 0.652109 -0.648499 -4.150391 -0.274658 0.00 0.00 -2.7 -0.8 -0.133 -1.938 -3.8308 -8.7243 0.3212 0.0046 0.023359 -1.445822 10.54 490 780 0.00 0.00 0.0000 0.0000
0.231 4 10.201196 0.179810 7.906826 -1.060486 0.846863 -0.053406 0.00 0.00 -2.6 0.0 -0.203 -1.248 -3.4148 -8.7243 0.3208 0.0046 0.023359 -1.441049 10.54 490 780 0.00 0.00 0.0000 0.0000
0.232 4 10.680688 -0.299683 1.021318 -1.129150 -0.923157 0.007629 0.00 0.00 -2.4 1.5 -0.361 -0.608 -3.4148 -11.2689 0.3208 0.0046 0.023359 -1.436147 10.54 490 770 0.00 0.00 0.0000 0.0000
0.233 4 10.002207 -0.182207 -3.433164 -1.464844 -2.731323 -0.083923 0.00 0.00 -2.3 1.9 -0.443 -0.101 -3.4148 -11.5579 0.3206 0.0046 0.020764 -1.441174 10.54 490 780 0.00 0.00 0.0000 0.0000
0.234 4 10.066938 -0.083911 0.503467 -1.075745 -3.929138 0.389099 0.00 0.00 -1.7 2.4 -0.532 0.279 -4.4048 -12.2934 0.3202 0.0046 0.020764 -1.446577 11.69 510 800 0.00 0.00 0.0000 0.0000
0.235 4 10.383403 -0.330850 5.377505 -1.228333 -1.213074 0.526428 0.00 0.00 -1.6 1.9 -0.431 0.475 -4.4048 -10.9941 0.3200 0.0046 0.018168 -1.443856 11.69 490 780 0.00 0.00 0.0000 0.0000
0.236 4 10.066938 0.115078 2.821811 -1.449585 -0.350952 0.427246 0.00 0.00 -1.6 1.9 -0.298 0.690 -4.4048 -10.6478 0.3196 0.0046 0.018168 -1.438945 11.69 490 780 0.00 0.00 0.0000 0.0000
0.237 4 9.400444 -0.294888 -0.752803 -1.014709 -0.503540 0.358582 0.00 0.00 -1.1 2.1 -0.196 0.640 -5.3661 -10.6478 0.3196 0.0046 0.018168 -1.439649 11.69 490 770 0.00 0.00 0.0000 0.0000
0.238 4 9.927885 -0.946997 -0.899048 -0.526428 -1.457214 0.381470 0.00 0.00 -1.0 1.8 -0.114 0.659 -5.3661 -9.8706 0.3194 0.0046 0.015573 -1.443948 11.69 490 780 0.00 0.00 0.0000 0.0000
0.239 4 10.702266 0.124668 3.327676 -0.976562 -0.396729 0.495911 0.00 0.00 -0.8 1.3 0.000 0.678 -5.7543 -8.5587 0.3190 0.0046 0.015573 -1.444386 11.77 510 800 0.00 0.00 0.0000 0.0000
0.240 4 10.333056 -0.378799 3.584204 -0.587463 0.404358 0.587463 0.00 0.00 -0.8 1.4 0.025 0.646 -5.7543 -8.5587 0.3190 0.0046 0.015573 -1.440598 11.77 490 770 0.00 0.00 0.0000 0.0000
0.241 4 9.218237 -0.872676 -2.066611 -0.228882 -0.907898 0.625610 0.00 0.00 -0.8 0.8 0.089 0.576 -5.4527 -6.3786 0.3186 0.0046 0.015573 -1.442058 11.77 490 810 0.00 0.00 0.0000 0.0000
0.242 4 9.199058 0.493877 -0.477095 -0.205994 -0.389099 0.679016 0.00 0.00 -0.8 0.8 0.120 0.494 -5.4527 -6.3786 0.3186 0.0046 0.015573 -1.447315 11.77 490 810 0.00 0.00 0.0000 0.0000
0.243 4 9.762461 -0.225361 4.655869 -0.175476 1.968384 -0.694275 0.00 0.00 -0.8 0.8 0.133 0.348 -5.4527 -6.3190 0.3186 0.0046 0.015573 -1.445854 11.77 490 810 0.00 0.00 0.0000 0.0000
0.244 4 8.930542 -0.453120 0.848701 0.114441 1.312256 -1.632690 0.00 0.00 -0.9 -0.8 0.139 0.260 -4.9534 -5.1417 0.3182 0.0046 0.015573 -1.442955 11.83 510 840 0.00 0.00 0.0000 0.0000
0.245 4 11.323208 -1.205923 -1.057280 -0.083923 -0.579834 -1.373291 0.00 0.00 -0.8 -0.8 0.158 0.196 -4.9534 -5.1417 0.3182 0.0046 0.015573 -1.445464 11.83 490 810 0.00 0.00 0.0000 0.0000
0.246 4 12.327744 2.049829 3.027993 -0.785828 -0.556946 -0.679016 0.00 0.00 -0.8 0.8 0.146 0.158 -4.9534 -5.1417 0.3182 0.0046 0.015573 -1.446493 11.83 490 810 0.00 0.00 0.0000 0.0000
0.247 4 9.671357 -0.275708 2.718721 -0.343323 -0.061035 -0.427246 0.00 0.00 -1.1 -0.8 0.139 0.184 -4.1866 -3.8526 0.3180 0.0046 0.018168 -1.443862 11.83 490 820 0.00 0.00 0.0000 0.0000
0.248 4 8.513384 0.083911 0.870278 0.221252 1.060486 -1.091003 0.00 0.00 -1.0 -0.8 0.101 0.133 -4.1866 -3.6847 0.3178 0.0046 0.015573 -1.442644 11.83 490 820 0.00 0.00 0.0000 0.0000
0.249 4 9.879936 -1.150781 2.157715 1.617432 3.410339 -1.129150 0.00 0.00 -0.9 -0.8 0.082 0.076 -4.1866 -3.6847 0.3178 0.0046 0.015573 -1.442006 11.90 510 830 0.00 0.00 0.0000 0.0000
0.250 4 11.013935 -0.465107 1.426489 1.266479 3.318787 -0.663757 0.00 0.00 -0.8 -0.8 0.076 0.082 -4.1866 -3.6847 0.3178 0.0046 0.015573 -1.441094 11.90 490 810 0.00 0.00 0.0000 0.0000
0.251 4 10.766996 -0.469902 -1.793301 0.442505 -0.587463 -0.068665 0.00 0.00 -1.1 -0.8 0.057 0.057 -3.6157 -3.6061 0.3174 0.0046 0.015573 -1.443997 11.90 490 820 0.00 0.00 0.0000 0.0000
0.252 4 10.040566 -0.546621 1.349770 -0.030518 -1.129150 0.350952 0.00 0.00 -1.0 -0.8 0.108 0.051 -3.6157 -3.6061 0.3174 0.0046 0.015573 -1.446834 11.90 490 810 0.00 0.00 0.0000 0.0000
0.253 4 9.551484 -0.683276 4.933974 0.366211 2.494812 0.312805 0.00 0.00 -1.0 -0.8 0.070 0.038 -3.6157 -3.6061 0.3174 0.0046 0.015573 -1.443232 11.90 490 810 0.00 0.00 0.0000 0.0000
0.254 4 9.505932 -0.556211 0.520249 1.144409 3.196716 -0.114441 0.00 0.00 -0.9 -0.8 0.076 0.063 -3.6157 -3.6061 0.3174 0.0046 0.015573 -1.440447 11.82 510 830 0.00 0.00 0.0000 0.0000
0.255 4 10.069336 0.220566 -0.570596 1.533508 1.754761 -0.396729 0.00 0.00 -1.1 -0.8 0.038 0.044 -3.1158 -3.4235 0.3170 0.0045 0.015573 -1.443004 11.82 490 820 0.00 0.00 0.0000 0.0000
0.256 4 10.836523 0.251733 2.999223 1.296997 1.403809 -0.503540 0.00 0.00 -1.1 -0.8 0.070 0.070 -3.1158 -3.4235 0.3170 0.0045 0.015573 -1.443394 11.82 490 810 0.00 0.00 0.0000 0.0000
0.257 4 10.438544 0.213374 1.925161 1.037598 1.319885 -1.052856 0.00 0.00 -1.0 -0.8 0.070 0.070 -3.1158 -3.4235 0.3170 0.0045 0.015573 -1.441415 11.82 490 810 0.00 0.00 0.0000 0.0000
0.258 4 9.791230 -0.268516 0.951792 1.426697 1.869202 -1.686096 0.00 0.00 -1.0 -0.8 0.038 0.038 -3.1158 -3.4235 0.3170 0.0045 0.015573 -1.441184 11.82 490 810 0.00 0.00 0.0000 0.0000
0.259 4 9.635395 -0.155835 0.414761 1.647949 1.899719 -2.006531 0.00 0.00 -0.9 -0.8 0.076 0.057 -3.1158 -3.2506 0.3170 0.0045 0.015573 -1.442332 11.83 510 830 0.00 0.00 0.0000 0.0000
0.260 4 9.915898 -0.103091 1.558350 1.731873 1.998901 -2.044678 0.00 0.00 -1.1 -0.8 0.063 0.038 -2.7209 -2.6672 0.3166 0.0045 0.015573 -1.442873 11.83 490 810 0.00 0.00 0.0000 0.0000
0.261 4 10.479301 -0.131860 2.761875 1.296997 2.433777 -1.869202 0.00 0.00 -1.0 -0.8 0.057 0.025 -2.7209 -2.6672 0.3166 0.0045 0.015573 -1.441273 11.83 490 810 0.00 0.00 0.0000 0.0000
0.262 4 10.239555 -0.359619 0.659302 1.167297 1.716614 -1.800537 0.00 0.00 -1.0 -0.8 0.025 0.025 -2.7209 -2.6672 0.3166 0.0045 0.015573 -1.440614 11.83 490 810 0.00 0.00 0.0000 0.0000
0.263 4 9.899116 -0.733623 0.129463 2.067566 1.289368 -1.838684 0.00 0.00 -0.9 -0.8 0.032 0.051 -2.7209 -2.6672 0.3166 0.0045 0.015573 -1.442400 11.83 490 800 0.00 0.00 0.0000 0.0000
0.264 4 9.175083 -0.095898 2.344717 1.724243 2.426147 -1.670837 0.00 0.00 -0.9 -0.8 0.057 0.019 -2.7209 -2.6672 0.3166 0.0045 0.015573 -1.442303 11.83 510 830 0.00 0.00 0.0000 0.0000
0.265 4 10.217978 0.501069 2.184087 1.129150 2.174377 -1.419067 0.00 0.00 -0.9 -0.8 0.032 0.025 -2.6309 -2.6672 0.3166 0.0045 0.015573 -1.440246 11.83 490 810 0.00 0.00 0.0000 0.0000
0.266 4 11.105039 -1.570337 0.517852 1.289368 1.838684 -1.121521 0.00 0.00 -1.0 -0.8 0.076 -0.000 -2.3724 -2.2278 0.3164 0.0045 0.018168 -1.440250 11.83 490 820 0.00 0.00 0.0000 0.0000
0.267 4 9.942270 -0.424351 -0.043154 1.388550 1.670837 -0.915527 0.00 0.00 -1.0 -0.8 0.051 -0.006 -2.3724 -1.9127 0.3164 0.0045 0.018168 -1.442386 11.83 490 800 0.00 0.00 0.0000 0.0000
0.268 4 9.678550 -0.103091 2.766670 1.098633 2.494812 -1.007080 0.00 0.00 -0.9 -0.8 0.019 0.013 -2.3724 -1.6757 0.3164 0.0045 0.018168 -1.442179 11.83 490 810 0.00 0.00 0.0000 0.0000
0.269 4 10.381005 -0.215771 3.545845 1.220703 3.791809 -1.083374 0.00 0.00 -0.9 -0.8 0.032 0.025 -2.3724 -1.4876 0.3164 0.0045 0.018168 -1.438656 11.83 510 830 0.00 0.00 0.0000 0.0000
0.270 4 9.843974 -0.338042 -0.028770 1.419067 3.448486 -1.182556 0.00 0.00 -0.9 -0.8 0.044 0.025 -2.3724 -1.4556 0.3162 0.0045 0.015573 -1.437980 11.83 490 810 0.00 0.00 0.0000 0.0000
0.271 4 10.522456 -0.069526 0.009590 1.815796 2.464294 -1.251221 0.00 0.00 -0.9 -0.8 0.032 0.019 -2.3724 -1.4556 0.3162 0.0045 0.015573 -1.440579 11.83 490 800 0.00 0.00 0.0000 0.0000
0.272 4 10.325864 -0.323657 2.524526 1.754761 2.586365 -1.281738 0.00 0.00 -1.0 -0.8 0.025 -0.006 -2.0998 -1.4556 0.3162 0.0045 0.015573 -1.440730 11.83 490 810 0.00 0.00 0.0000 0.0000
0.273 4 9.621011 -0.172617 1.047690 1.739502 2.517700 -1.289368 0.00 0.00 -1.1 -0.8 0.038 0.013 -1.8176 -1.4556 0.3162 0.0045 0.015573 -1.439814 11.83 490 810 0.00 0.00 0.0000 0.0000
0.274 4 9.920693 -0.724033 1.474438 1.655579 3.334045 -1.182556 0.00 0.00 -1.2 -0.8 0.063 0.019 -1.5984 -1.4556 0.3162 0.0045 0.015573 -1.439822 11.85 510 830 0.00 0.00 0.0000 0.0000
0.275 4 10.030976 0.074321 1.858032 1.342773 3.761292 -1.350403 0.00 0.00 -1.2 -0.8 0.019 -0.006 -1.4667 -1.4556 0.3160 0.0045 0.018168 -1.439080 11.85 490 820 0.00 0.00 0.0000 0.0000
0.276 4 10.086118 -0.762393 0.875073 1.579285 3.166199 -1.342773 0.00 0.00 -1.2 -0.8 0.006 -0.000 -1.4667 -1.4556 0.3160 0.0045 0.018168 -1.438958 11.85 490 810 0.00 0.00 0.0000 0.0000
0.277 4 10.174824 -0.469902 1.323398 1.762390 2.723694 -1.365662 0.00 0.00 -1.1 -0.8 0.000 -0.000 -1.4667 -1.4556 0.3160 0.0045 0.018168 -1.439380 11.85 490 810 0.00 0.00 0.0000 0.0000
0.278 4 10.318671 -0.390786 2.001880 1.815796 2.510071 -1.358032 0.00 0.00 -1.1 -0.8 0.051 0.013 -1.4667 -1.4556 0.3160 0.0045 0.018168 -1.438759 11.85 490 810 0.00 0.00 0.0000 0.0000
0.279 4 10.213183 -0.436338 2.133740 1.708984 2.975464 -1.403809 0.00 0.00 -1.1 -0.8 0.000 -0.025 -1.4667 -1.3799 0.3160 0.0045 0.018168 -1.437390 11.87 510 830 0.00 0.00 0.0000 0.0000
0.280 4 10.076528 -0.445928 1.198730 1.434326 3.074646 -1.251221 0.00 0.00 -1.0 -0.8 0.044 -0.013 -1.4667 -1.2544 0.3160 0.0045 0.018168 -1.436768 11.87 490 810 0.00 0.00 0.0000 0.0000
0.281 4 10.225170 -0.383594 1.340181 1.167297 2.990723 -1.174927 0.00 0.00 -1.0 -0.8 0.006 -0.013 -1.4667 -1.1479 0.3160 0.0045 0.018168 -1.436907 11.87 490 810 0.00 0.00 0.0000 0.0000
0.282 4 10.225170 -0.448325 1.867622 1.205444 3.067017 -1.174927 0.00 0.00 -1.0 -0.8 0.013 -0.000 -1.4667 -1.0581 0.3160 0.0045 0.018168 -1.436426 11.87 490 810 0.00 0.00 0.0000 0.0000
0.283 4 10.213183 -0.450723 1.548760 1.167297 3.005981 -1.182556 0.00 0.00 -1.0 -0.8 0.025 -0.006 -1.4667 -0.9813 0.3160 0.0045 0.018168 -1.435756 11.87 490 810 0.00 0.00 0.0000 0.0000
0.284 4 10.131670 -0.335645 1.157974 1.106262 2.716064 -1.197815 0.00 0.00 -1.0 -0.8 0.038 -0.019 -1.4635 -0.9137 0.3160 0.0045 0.018168 -1.435764 11.80 510 830 0.00 0.00 0.0000 0.0000
0.285 4 10.071733 -0.330850 1.263462 0.869751 2.510071 -1.243591 0.00 0.00 -1.0 -0.8 0.006 -0.019 -1.3232 -0.8570 0.3160 0.0045 0.018168 -1.436030 11.80 490 810 0.00 0.00 0.0000 0.0000
0.286 4 10.119682 -0.395581 1.757339 0.823975 2.639771 -1.144409 0.00 0.00 -1.1 -0.8 0.019 -0.019 -1.2052 -0.8059 0.3160 0.0045 0.018168 -1.435716 11.80 490 810 0.00 0.00 0.0000 0.0000
0.287 4 10.208388 -0.393184 1.728569 0.770569 2.716064 -1.007080 0.00 0.00 -1.1 -0.8 -0.006 -0.032 -1.1066 -0.7606 0.3160 0.0045 0.018168 -1.434981 11.80 490 810 0.00 0.00 0.0000 0.0000
0.288 4 10.304287 -0.397979 1.397720 0.549316 2.487183 -1.091003 0.00 0.00 -1.1 -0.8 0.006 -0.013 -1.0229 -0.7201 0.3160 0.0045 0.018168 -1.434630 11.80 490 810 0.00 0.00 0.0000 0.0000
0.289 4 10.237158 -0.508262 1.443271 0.488281 2.258301 -1.235962 0.00 0.00 -1.1 -0.8 0.000 -0.006 -0.9496 -0.6830 0.3160 0.0045 0.018168 -1.434564 11.85 510 830 0.00 0.00 0.0000 0.0000
0.290 4 10.256337 -0.496274 1.673428 0.473022 2.189636 -1.121521 0.00 0.00 -1.1 -0.8 0.000 -0.006 -0.8885 -0.6508 0.3160 0.0045 0.018168 -1.434235 11.85 490 810 0.00 0.00 0.0000 0.0000
0.291 4 10.323466 -0.426748 1.932353 0.373840 2.197266 -0.823975 0.00 0.00 -1.2 -0.8 0.000 -0.019 -0.8337 -0.6209 0.3160 0.0045 0.018168 -1.433468 11.85 490 810 0.00 0.00 0.0000 0.0000
0.292 4 10.122080 -0.472300 1.524785 0.434875 2.113342 -0.717163 0.00 0.00 -1.2 -0.8 0.000 -0.051 -0.7853 -0.5936 0.3160 0.0045 0.018168 -1.432837 11.85 490 810 0.00 0.00 0.0000 0.0000
0.293 4 10.107695 -0.688071 1.476836 0.503540 1.914978 -0.663757 0.00 0.00 -1.2 -0.8 0.006 -0.025 -0.7422 -0.5687 0.3160 0.0045 0.018168 -1.432617 11.85 490 810 0.00 0.00 0.0000 0.0000
0.294 4 10.241953 -0.513057 1.491221 0.381470 1.907349 -0.701904 0.00 0.00 -1.2 -0.8 -0.013 -0.025 -0.7028 -0.5453 0.3160 0.0045 0.018168 -1.432452 11.82 510 830 0.00 0.00 0.0000 0.0000
0.295 4 10.191607 -0.587378 1.400117 0.274658 1.724243 -0.709534 0.00 0.00 -1.2 -0.8 0.006 -0.019 -0.6688 -0.5245 0.3160 0.0045 0.018168 -1.432377 11.82 490 810 0.00 0.00 0.0000 0.0000
0.296 4 10.186811 -0.395581 1.517593 0.068665 1.716614 -0.793457 0.00 0.00 -1.2 -0.8 0.006 0.013 -0.6373 -0.5050 0.3160 0.0045 0.018168 -1.432272 11.82 490 810 0.00 0.00 0.0000 0.0000
0.297 4 10.208388 -0.474697 1.608696 -0.137329 1.762390 -0.724792 0.00 0.00 -1.1 -0.8 0.006 -0.013 -0.6086 -0.4868 0.3160 0.0045 0.018168 -1.431973 11.82 490 810 0.00 0.00 0.0000 0.0000
0.298 4 10.136464 -0.462710 1.572734 -0.198364 1.861572 -0.732422 0.00 0.00 -1.1 -0.8 0.006 -0.013 -0.5824 -0.4699 0.3160 0.0045 0.018168 -1.431620 11.82 490 810 0.00 0.00 0.0000 0.0000
0.299 4 10.167631 -0.402773 1.488823 -0.030518 1.663208 -0.640869 0.00 0.00 -1.1 -0.8 -0.006 -0.013 -0.5579 -0.4538 0.3160 0.0045 0.018168 -1.431381 11.80 510 830 0.00 0.00 0.0000 0.0000
0.300 4 10.261132 -0.424351 1.546362 0.076294 1.327515 -0.579834 0.00 0.00 -1.1 -0.8 0.025 -0.000 -0.5362 -0.4393 0.3160 0.0045 0.018168 -1.431196 11.80 490 810 0.00 0.00 0.0000 0.0000
0.301 4 10.325864 -0.431543 1.615889 -0.213623 1.113892 -0.572205 0.00 0.00 -1.1 -1.2 0.032 -0.000 -0.5157 0.4337 0.3162 0.0045 0.020764 -1.430921 11.80 490 820 0.00 0.00 0.0000 0.0000
0.302 4 10.222774 -0.445928 1.613491 -0.518799 1.083374 -0.717163 0.00 0.00 -1.1 -1.2 0.000 -0.038 -0.4968 0.4337 0.3162 0.0045 0.020764 -1.430585 11.80 490 810 0.00 0.00 0.0000 0.0000
0.303 4 10.186811 -0.491479 1.527183 -0.747681 1.045227 -0.732422 0.00 0.00 -1.1 -1.1 0.019 -0.120 -0.4792 0.4337 0.3162 0.0045 0.020764 -1.430320 11.80 490 810 0.00 0.00 0.0000 0.0000
0.304 4 10.237158 -0.510659 1.519990 -0.885010 1.007080 -0.556946 0.00 0.00 -1.1 -1.1 0.013 -0.127 -0.4625 0.4337 0.3162 0.0045 0.020764 -1.430151 11.80 510 830 0.00 0.00 0.0000 0.0000
0.305 4 10.306684 -0.551416 1.603901 -0.831604 0.961304 -0.495911 0.00 0.00 -1.1 -1.1 0.025 -0.108 -0.4475 0.4337 0.3162 0.0045 0.020764 -1.429931 11.80 490 810 0.00 0.00 0.0000 0.0000
0.306 4 10.258735 -0.527441 1.508003 -0.671387 0.694275 -0.625610 0.00 0.00 -1.1 -1.0 -0.013 -0.044 -0.4331 0.4337 0.3162 0.0045 0.020764 -1.429732 11.80 490 810 0.00 0.00 0.0000 0.0000
0.307 4 10.208388 -0.527441 1.531978 -0.503540 0.503540 -0.503540 0.00 0.00 -1.1 -1.0 0.000 -0.044 -0.4197 0.4337 0.3162 0.0045 0.020764 -1.429595 11.80 490 810 0.00 0.00 0.0000 0.0000
0.308 4 10.244350 -0.433940 1.587119 -0.480652 0.450134 -0.503540 0.00 0.00 -1.1 -1.0 -0.013 -0.025 -0.4071 0.4337 0.3162 0.0045 0.020764 -1.429387 11.80 490 810 0.00 0.00 0.0000 0.0000
0.309 4 10.239555 -0.419556 1.630273 -0.541687 0.419617 -0.534058 0.00 0.00 -1.1 -1.0 0.006 -0.019 -0.3949 0.4337 0.3162 0.0045 0.020764 -1.429094 11.83 510 830 0.00 0.00 0.0000 0.0000
0.310 4 10.241953 -0.362017 1.565542 -0.640869 0.251770 -0.556946 0.00 0.00 -1.1 -1.0 0.013 -0.000 -0.3839 0.4337 0.3162 0.0045 0.020764 -1.428829 11.83 490 810 0.00 0.00 0.0000 0.0000
0.311 4 10.227568 -0.407568 1.498413 -0.778198 0.228882 -0.534058 0.00 0.00 -1.1 -1.0 0.013 -0.013 -0.3733 0.4337 0.3162 0.0045 0.020764 -1.428694 11.83 490 810 0.00 0.00 0.0000 0.0000
0.312 4 10.232363 -0.385991 1.582324 -0.801086 0.205994 -0.602722 0.00 0.00 -1.1 -1.0 0.019 -0.019 -0.3633 0.4337 0.3162 0.0045 0.020764 -1.428545 11.83 490 810 0.00 0.00 0.0000 0.0000
0.313 4 10.270722 -0.388389 1.594311 -0.831604 0.061035 -0.640869 0.00 0.00 -1.1 -1.0 0.000 0.006 -0.3538 0.4337 0.3162 0.0045 0.020764 -1.428315 11.83 490 810 0.00 0.00 0.0000 0.0000
0.314 4 10.203593 -0.501069 1.445669 -0.793457 0.099182 -0.495911 0.00 0.00 -1.1 -1.0 0.006 0.006 -0.3446 0.4337 0.3162 0.0045 0.020764 -1.428217 11.82 510 830 0.00 0.00 0.0000 0.0000
0.315 4 10.184414 -0.462710 1.428887 -0.770569 0.106812 -0.350952 0.00 0.00 -1.1 -1.0 0.019 -0.013 -0.3362 0.4337 0.3162 0.0045 0.020764 -1.428265 11.82 490 810 0.00 0.00 0.0000 0.0000
0.316 4 10.203593 -0.424351 1.553555 -0.801086 0.053406 -0.450134 0.00 0.00 -1.1 -1.0 -0.006 -0.025 -0.3281 0.4337 0.3162 0.0045 0.020764 -1.428209 11.82 490 810 0.00 0.00 0.0000 0.0000
0.317 4 10.244350 -0.421953 1.500811 -0.831604 0.038147 -0.488281 0.00 0.00 -1.1 -1.0 0.000 -0.013 -0.3203 0.4337 0.3162 0.0045 0.020764 -1.428096 11.82 490 810 0.00 0.00 0.0000 0.0000
0.318 4 10.232363 -0.481890 1.380937 -0.793457 -0.297546 -0.495911 0.00 0.00 -1.1 -1.0 -0.006 -0.013 -0.3129 0.4337 0.3162 0.0045 0.020764 -1.428155 11.82 490 810 0.00 0.00 0.0000 0.0000
0.319 4 10.105297 -0.424351 1.416899 -0.663757 -0.396729 -0.434875 0.00 0.00 -1.1 -1.0 0.013 -0.032 -0.3057 0.4337 0.3162 0.0045 0.020764 -1.428278 11.83 510 830 0.00 0.00 0.0000 0.0000
0.320 4 10.158042 -0.314067 1.510400 -0.640869 -0.320435 -0.381470 0.00 0.00 -1.1 -1.0 0.013 -0.019 -0.2990 0.4337 0.3162 0.0045 0.020764 -1.428266 11.83 490 810 0.00 0.00 0.0000 0.0000
0.321 4 10.258735 -0.316465 1.539170 -0.671387 -0.289917 -0.457764 0.00 0.00 -1.1 -1.0 0.006 0.006 -0.2926 0.4337 0.3162 0.0045 0.020764 -1.428158 11.83 490 810 0.00 0.00 0.0000 0.0000
0.322 4 10.177221 -0.328452 1.534375 -0.640869 -0.305176 -0.366211 0.00 0.00 -1.1 -1.0 0.000 -0.025 -0.2864 0.4337 0.3162 0.0045 0.020764 -1.428031 11.83 490 810 0.00 0.00 0.0000 0.0000
0.323 4 10.234760 -0.321260 1.524785 -0.602722 -0.366211 -0.419617 0.00 0.00 -1.1 -1.0 -0.006 -0.019 -0.2804 0.4337 0.3162 0.0045 0.020764 -1.427918 11.83 490 810 0.00 0.00 0.0000 0.0000
0.324 4 10.179619 -0.270913 1.402515 -0.610352 -0.488281 -0.473022 0.00 0.00 -1.1 -1.0 0.019 -0.019 -0.2746 0.4337 0.3162 0.0045 0.020764 -1.427935 11.83 510 830 0.00 0.00 0.0000 0.0000
0.325 4 10.179619 -0.321260 1.440874 -0.511169 -0.564575 -0.526428 0.00 0.00 -1.1 -1.0 0.025 -0.032 -0.2693 0.4337 0.3162 0.0045 0.020764 -1.428025 11.83 490 810 0.00 0.00 0.0000 0.0000
0.326 4 10.189209 -0.364414 1.479233 -0.465393 -0.473022 -0.556946 0.00 0.00 -1.1 -1.0 0.000 -0.013 -0.2640 0.4337 0.3162 0.0045 0.020764 -1.428042 11.83 490 810 0.00 0.00 0.0000 0.0000
0.327 4 10.215581 -0.390786 1.512798 -0.396729 -0.434875 -0.549316 0.00 0.00 -1.1 -1.0 0.006 -0.013 -0.2590 0.4337 0.3162 0.0045 0.020764 -1.427993 11.83 490 810 0.00 0.00 0.0000 0.0000
0.328 4 10.210786 -0.285298 1.344976 -0.358582 -0.556946 -0.442505 0.00 0.00 -1.1 -1.0 0.019 -0.019 -0.2541 0.4337 0.3162 0.0045 0.020764 -1.428077 11.83 490 810 0.00 0.00 0.0000 0.0000
0.329 4 10.194004 -0.290093 1.366553 -0.343323 -0.549316 -0.404358 0.00 0.00 -1.1 -1.0 -0.013 -0.019 -0.2493 0.4337 0.3162 0.0045 0.020764 -1.428297 11.79 510 830 0.00 0.00 0.0000 0.0000
0.330 4 10.162837 -0.268516 1.543965 -0.091553 -0.389099 -0.572205 0.00 0.00 -1.1 -1.0 0.000 -0.000 -0.2449 0.4337 0.3162 0.0045 0.020764 -1.428314 11.79 490 810 0.00 0.00 0.0000 0.0000
0.331 4 10.184414 -0.239746 1.517593 0.099182 -0.350952 -0.602722 0.00 0.00 -1.1 -1.0 0.019 0.013 -0.2405 0.4337 0.3162 0.0045 0.020764 -1.428185 11.79 490 810 0.00 0.00 0.0000 0.0000
0.332 4 10.222774 -0.266118 1.366553 0.091553 -0.587463 -0.526428 0.00 0.00 -1.1 -1.0 0.000 -0.000 -0.2363 0.4279 0.3162 0.0045 0.020764 -1.428236 11.79 490 810 0.00 0.00 0.0000 0.0000
0.333 4 10.198798 -0.273311 1.332988 0.129700 -0.648499 -0.556946 0.00 0.00 -1.1 -1.0 0.000 -0.013 -0.2323 0.4148 0.3162 0.0045 0.020764 -1.428468 11.79 490 810 0.00 0.00 0.0000 0.0000
0.334 4 10.213183 -0.222964 1.524785 0.114441 -0.442505 -0.579834 0.00 0.00 -1.1 -1.0 0.006 -0.025 -0.2283 0.4022 0.3162 0.0045 0.020764 -1.428541 11.83 510 830 0.00 0.00 0.0000 0.0000
0.335 4 10.229965 -0.249336 1.402515 0.320435 -0.343323 -0.518799 0.00 0.00 -1.1 -1.0 0.019 -0.013 -0.2246 0.3908 0.3162 0.0045 0.020764 -1.428548 11.83 490 810 0.00 0.00 0.0000 0.0000
0.336 4 10.170029 -0.282900 1.198730 0.442505 -0.373840 -0.617981 0.00 0.00 -1.1 -1.0 0.032 -0.025 -0.2209 0.3799 0.3162 0.0045 0.020764 -1.428861 11.83 490 810 0.00 0.00 0.0000 0.0000
0.337 4 10.182016 -0.273311 1.335386 0.556946 -0.450134 -0.587463 0.00 0.00 -1.1 -1.0 0.038 -0.013 -0.2173 0.3695 0.3162 0.0045 0.020764 -1.429226 11.83 490 810 0.00 0.00 0.0000 0.0000
0.338 4 10.213183 -0.304478 1.426489 0.556946 -0.404358 -0.579834 0.00 0.00 -1.1 -1.0 0.006 -0.019 -0.2139 0.3596 0.3162 0.0045 0.020764 -1.429371 11.83 490 810 0.00 0.00 0.0000 0.0000
0.339 4 10.143657 -0.299683 1.366553 0.572205 -0.465393 -0.610352 0.00 0.00 -1.1 -1.0 0.006 -0.019 -0.2105 0.3501 0.3162 0.0045 0.020764 -1.429479 11.82 510 830 0.00 0.00 0.0000 0.0000
0.340 4 10.119682 -0.249336 1.289834 0.747681 -0.450134 -0.617981 0.00 0.00 -1.1 -1.0 0.013 -0.013 -0.2073 0.3415 0.3162 0.0045 0.020764 -1.429704 11.82 490 810 0.00 0.00 0.0000 0.0000
0.341 4 10.179619 -0.275708 1.366553 0.953674 -0.305176 -0.602722 0.00 0.00 -1.1 -1.0 0.013 -0.000 -0.2042 0.3331 0.3162 0.0045 0.020764 -1.429928 11.82 490 810 0.00 0.00 0.0000 0.0000
0.342 4 10.213183 -0.285298 1.392925 0.961304 -0.358582 -0.656128 0.00 0.00 -1.1 -1.0 0.019 -0.019 -0.2012 0.3251 0.3162 0.0045 0.020764 -1.430060 11.82 490 810 0.00 0.00 0.0000 0.0000
0.343 4 10.201196 -0.306875 1.484028 1.014709 -0.366211 -0.541687 0.00 0.00 -1.1 -1.0 0.032 -0.019 -0.1982 0.3174 0.3162 0.0045 0.020764 -1.430081 11.82 490 810 0.00 0.00 0.0000 0.0000
0.344 4 10.234760 -0.316465 1.419297 1.121521 -0.183105 -0.457764 0.00 0.00 -1.1 -1.0 0.013 -0.032 -0.1953 0.3100 0.3162 0.0045 0.020764 -1.430077 11.85 510 830 0.00 0.00 0.0000 0.0000
0.345 4 10.184414 -0.275708 1.388130 1.106262 -0.305176 -0.419617 0.00 0.00 -1.1 -0.9 0.025 -0.032 -0.1926 0.3032 0.3162 0.0045 0.020764 -1.430162 11.85 490 810 0.00 0.00 0.0000 0.0000
0.346 4 10.177221 -0.266118 1.440874 1.068115 -0.411987 -0.480652 0.00 0.00 -1.1 -0.9 0.019 -0.044 -0.1899 0.2966 0.3162 0.0045 0.020764 -1.430220 11.85 490 810 0.00 0.00 0.0000 0.0000
0.347 4 10.217978 -0.299683 1.462451 1.152039 -0.335693 -0.564575 0.00 0.00 -1.1 -0.9 -0.013 -0.013 -0.1872 0.2902 0.3162 0.0045 0.020764 -1.430210 11.85 490 810 0.00 0.00 0.0000 0.0000
0.348 4 10.172426 -0.299683 1.455259 1.373291 -0.404358 -0.480652 0.00 0.00 -1.1 -0.9 -0.006 0.013 -0.1847 0.2841 0.3162 0.0045 0.020764 -1.430186 11.85 490 810 0.00 0.00 0.0000 0.0000
0.349 4 10.184414 -0.304478 1.407310 1.502991 -0.389099 -0.434875 0.00 0.00 -1.1 -0.9 0.013 -0.006 -0.1821 0.2781 0.3162 0.0045 0.020764 -1.430210 11.83 510 830 0.00 0.00 0.0000 0.0000
0.350 4 10.194004 -0.256528 1.426489 1.625061 -0.328064 -0.450134 0.00 0.00 -1.1 -0.9 0.032 -0.013 -0.1798 0.2726 0.3162 0.0045 0.020764 -1.430264 11.83 490 810 0.00 0.00 0.0000 0.0000
0.351 4 10.261132 -0.213374 1.524785 1.579285 -0.045776 -0.442505 0.00 0.00 -1.1 -0.9 0.006 -0.000 -0.1774 0.2672 0.3162 0.0045 0.020764 -1.430213 11.83 490 810 0.00 0.00 0.0000 0.0000
0.352 4 10.198798 -0.323657 1.522388 1.571655 -0.015259 -0.480652 0.00 0.00 -1.1 -0.9 0.006 -0.019 -0.1751 0.2621 0.3162 0.0045 0.020764 -1.430070 11.83 490 810 0.00 0.00 0.0000 0.0000
0.353 4 10.179619 -0.326055 1.448066 1.731873 -0.190735 -0.419617 0.00 0.00 -1.1 -0.9 0.025 -0.013 -0.1729 0.2571 0.3162 0.0045 0.020764 -1.429992 11.83 490 810 0.00 0.00 0.0000 0.0000
0.354 4 10.196401 -0.345234 1.452861 1.892090 -0.312805 -0.503540 0.00 0.00 -1.1 -0.9 0.038 -0.013 -0.1707 0.2522 0.3162 0.0045 0.020764 -1.429984 11.82 510 830 0.00 0.00 0.0000 0.0000
0.355 4 10.182016 -0.347632 1.452861 1.838684 -0.183105 -0.526428 0.00 0.00 -1.1 -0.9 0.013 -0.019 -0.1686 0.2477 0.3162 0.0045 0.020764 -1.429972 11.82 490 810 0.00 0.00 0.0000 0.0000
0.356 4 10.186811 -0.323657 1.433682 1.770020 -0.099182 -0.442505 0.00 0.00 -1.1 -0.9 0.025 -0.019 -0.1665 0.2432 0.3162 0.0045 0.020764 -1.429975 11.82 490 810 0.00 0.00 0.0000 0.0000
0.357 4 10.210786 -0.316465 1.306616 1.770020 -0.167847 -0.579834 0.00 0.00 -1.1 -0.9 0.019 -0.025 -0.1645 0.2389 0.3162 0.0045 0.020764 -1.430122 11.82 490 810 0.00 0.00 0.0000 0.0000
0.358 4 10.146054 -0.275708 1.349770 1.777649 -0.259399 -0.595093 0.00 0.00 -1.1 -0.9 0.000 -0.032 -0.1625 0.2348 0.3162 0.0045 0.020764 -1.430341 11.82 490 810 0.00 0.00 0.0000 0.0000
0.359 4 10.198798 -0.273311 1.457656 1.747131 -0.289917 -0.450134 0.00 0.00 -1.1 -0.9 0.025 -0.019 -0.1605 0.2307 0.3162 0.0045 0.020764 -1.430412 11.83 510 830 0.00 0.00 0.0000 0.0000
0.360 4 10.208388 -0.326055 1.402515 1.708984 -0.190735 -0.358582 0.00 0.00 -1.1 -0.9 0.032 -0.025 -0.1587 0.2269 0.3162 0.0045 0.020764 -1.430439 11.83 490 810 0.00 0.00 0.0000 0.0000
0.361 4 10.114887 -0.378799 1.457656 1.762390 -0.114441 -0.473022 0.00 0.00 -1.1 -0.9 0.025 -0.025 -0.1568 0.2231 0.3162 0.0045 0.020764 -1.430452 11.83 490 810 0.00 0.00 0.0000 0.0000
0.362 4 10.203593 -0.385991 1.383335 1.892090 -0.160217 -0.457764 0.00 0.00 -1.1 -0.9 0.013 -0.038 -0.1550 0.2195 0.3162 0.0045 0.020764 -1.430482 11.83 490 810 0.00 0.00 0.0000 0.0000
0.363 4 10.217978 -0.335645 1.452861 1.922607 -0.244141 -0.320435 0.00 0.00 -1.1 -0.9 0.019 -0.006 -0.1533 0.2160 0.3162 0.0045 0.020764 -1.430531 11.83 490 810 0.00 0.00 0.0000 0.0000
0.364 4 10.237158 -0.364414 1.541567 1.846313 -0.450134 -0.358582 0.00 0.00 -1.1 -0.9 -0.006 0.006 -0.1515 0.2126 0.3162 0.0045 0.020764 -1.430436 11.85 510 830 0.00 0.00 0.0000 0.0000
0.365 4 10.215581 -0.376401 1.457656 1.808167 -0.411987 -0.350952 0.00 0.00 -1.1 -0.9 0.019 -0.032 -0.1499 0.2093 0.3162 0.0045 0.020764 -1.430340 11.85 490 810 0.00 0.00 0.0000 0.0000
0.366 4 10.270722 -0.395581 1.443271 1.800537 -0.343323 -0.244141 0.00 0.00 -1.1 -0.9 0.025 -0.019 -0.1482 0.2061 0.3162 0.0045 0.020764 -1.430342 11.85 490 810 0.00 0.00 0.0000 0.0000
0.367 4 10.229965 -0.359619 1.452861 1.686096 -0.457764 -0.236511 0.00 0.00 -1.1 -0.9 0.025 -0.019 -0.1466 0.2030 0.3162 0.0045 0.020764 -1.430351 11.85 490 810 0.00 0.00 0.0000 0.0000
0.368 4 10.208388 -0.383594 1.615889 1.716614 -0.320435 -0.198364 0.00 0.00 -1.1 -0.9 0.013 -0.006 -0.1451 0.2000 0.3162 0.0045 0.020764 -1.430188 11.85 490 810 0.00 0.00 0.0000 0.0000
0.369 4 10.155644 -0.426748 1.472041 1.754761 -0.129700 -0.152588 0.00 0.00 -1.1 -0.9 0.019 -0.006 -0.1435 0.1971 0.3162 0.0045 0.020764 -1.429996 11.83 510 830 0.00 0.00 0.0000 0.0000
0.370 4 10.191607 -0.457915 1.361758 1.724243 -0.267029 -0.274658 0.00 0.00 -1.1 -0.9 0.019 -0.006 -0.1420 0.1943 0.3162 0.0045 0.020764 -1.430047 11.83 490 810 0.00 0.00 0.0000 0.0000
0.371 4 10.244350 -0.407568 1.481631 1.739502 -0.274658 -0.358582 0.00 0.00 -1.1 -0.9 0.013 -0.019 -0.1405 0.1915 0.3162 0.0045 0.020764 -1.430102 11.83 490 810 0.00 0.00 0.0000 0.0000
0.372 4 10.258735 -0.393184 1.479233 1.640320 -0.228882 -0.289917 0.00 0.00 -1.1 -0.9 -0.006 -0.006 -0.1391 0.1889 0.3162 0.0045 0.020764 -1.430052 11.83 490 810 0.00 0.00 0.0000 0.0000
0.373 4 10.196401 -0.414761 1.448066 1.640320 -0.205994 -0.236511 0.00 0.00 -1.1 -0.9 -0.019 -0.019 -0.1377 0.1863 0.3162 0.0045 0.020764 -1.430028 11.83 490 810 0.00 0.00 0.0000 0.0000
0.374 4 10.208388 -0.438735 1.558350 1.670837 -0.320435 -0.160217 0.00 0.00 -1.1 -0.9 0.019 -0.000 -0.1363 0.1837 0.3162 0.0045 0.020764 -1.429924 11.80 510 830 0.00 0.00 0.0000 0.0000
0.375 4 10.217978 -0.414761 1.515195 1.571655 -0.373840 0.030518 0.00 0.00 -1.1 -0.9 0.013 -0.013 -0.1349 0.1813 0.3162 0.0045 0.020764 -1.429762 11.80 490 810 0.00 0.00 0.0000 0.0000
0.376 4 10.246748 -0.381196 1.524785 1.472473 -0.411987 0.061035 0.00 0.00 -1.1 -0.9 0.006 -0.019 -0.1336 0.1789 0.3162 0.0045 0.020764 -1.429641 11.80 490 810 0.00 0.00 0.0000 0.0000
0.377 4 10.258735 -0.381196 1.498413 1.510620 -0.305176 -0.038147 0.00 0.00 -1.1 -0.9 0.019 0.006 -0.1323 0.1765 0.3162 0.0045 0.020764 -1.429543 11.80 490 810 0.00 0.00 0.0000 0.0000
0.378 4 10.232363 -0.465107 1.457656 1.457214 -0.213623 -0.053406 0.00 0.00 -1.1 -0.9 -0.006 -0.013 -0.1310 0.1743 0.3162 0.0045 0.020764 -1.429508 11.80 490 810 0.00 0.00 0.0000 0.0000
0.379 4 10.261132 -0.510659 1.436079 1.373291 -0.335693 0.137329 0.00 0.00 -1.1 -0.9 0.019 -0.006 -0.1297 0.1720 0.3162 0.0045 0.020764 -1.429533 11.83 510 830 0.00 0.00 0.0000 0.0000
0.380 4 10.270722 -0.469902 1.448066 1.266479 -0.381470 0.198364 0.00 0.00 -1.1 -0.9 0.013 -0.013 -0.1285 0.1699 0.3162 0.0045 0.020764 -1.429572 11.83 490 810 0.00 0.00 0.0000 0.0000
0.381 4 10.198798 -0.527441 1.479233 1.304626 -0.442505 0.091553 0.00 0.00 -1.1 -0.9 0.025 -0.025 -0.1273 0.1678 0.3162 0.0045 0.020764 -1.429563 11.83 490 810 0.00 0.00 0.0000 0.0000
0.382 4 10.182016 -0.489082 1.452861 1.388550 -0.289917 0.152588 0.00 0.00 -1.1 -0.9 0.044 -0.013 -0.1261 0.1657 0.3162 0.0045 0.020764 -1.429537 11.83 490 810 0.00 0.00 0.0000 0.0000
0.383 4 10.205991 -0.462710 1.493618 1.335144 -0.320435 0.358582 0.00 0.00 -1.1 -0.9 0.025 -0.000 -0.1250 0.1637 0.3162 0.0045 0.020764 -1.429497 11.83 490 810 0.00 0.00 0.0000 0.0000
0.384 4 10.215581 -0.395581 1.582324 1.296997 -0.411987 0.343323 0.00 0.00 -1.1 -0.9 0.013 -0.013 -0.1238 0.1617 0.3162 0.0045 0.020764 -1.429341 11.83 510 830 0.00 0.00 0.0000 0.0000
0.385 4 10.246748 -0.441133 1.548760 1.136780 -0.267029 0.289917 0.00 0.00 -1.1 -0.9 0.019 -0.013 -0.1227 0.1598 0.3162 0.0045 0.020764 -1.429141 11.83 490 810 0.00 0.00 0.0000 0.0000
0.386 4 10.244350 -0.431543 1.431284 1.037598 -0.297546 0.373840 0.00 0.00 -1.1 -0.9 0.013 -0.032 -0.1216 0.1580 0.3162 0.0045 0.020764 -1.429091 11.83 490 810 0.00 0.00 0.0000 0.0000
0.387 4 10.205991 -0.412363 1.402515 0.900269 -0.473022 0.411987 0.00 0.00 -1.1 -0.9 0.013 -0.019 -0.1205 0.1562 0.3162 0.0045 0.020764 -1.429177 11.83 490 810 0.00 0.00 0.0000 0.0000
0.388 4 10.227568 -0.412363 1.450464 0.900269 -0.564575 0.259399 0.00 0.00 -1.1 -0.9 0.000 -0.006 -0.1194 0.1544 0.3162 0.0045 0.020764 -1.429243 11.83 490 810 0.00 0.00 0.0000 0.0000
0.389 4 10.196401 -0.376401 1.515195 0.846863 -0.656128 0.205994 0.00 0.00 -1.1 -0.9 -0.013 -0.006 -0.1184 0.1526 0.3162 0.0045 0.020764 -1.429201 11.83 510 830 0.00 0.00 0.0000 0.0000
0.390 4 10.217978 -0.448325 1.438477 0.823975 -0.473022 0.152588 0.00 0.00 -1.1 -0.9 0.019 -0.013 -0.1174 0.1509 0.3162 0.0045 0.020764 -1.429169 11.83 490 810 0.00 0.00 0.0000 0.0000
0.391 4 10.194004 -0.465107 1.344976 0.831604 -0.434875 0.305176 0.00 0.00 -1.1 -0.9 0.025 -0.038 -0.1164 0.1493 0.3162 0.0045 0.020764 -1.429298 11.83 490 810 0.00 0.00 0.0000 0.0000
0.392 4 10.191607 -0.385991 1.366553 0.801086 -0.518799 0.320435 0.00 0.00 -1.1 -0.9 0.013 -0.032 -0.1154 0.1476 0.3162 0.0045 0.020764 -1.429490 11.83 490 810 0.00 0.00 0.0000 0.0000
0.393 4 10.256337 -0.441133 1.448066 0.694275 -0.587463 0.205994 0.00 0.00 -1.1 -0.9 0.019 -0.013 -0.1144 0.1460 0.3162 0.0045 0.020764 -1.429589 11.83 490 810 0.00 0.00 0.0000 0.0000
0.394 4 10.222774 -0.448325 1.534375 0.633240 -0.450134 0.129700 0.00 0.00 -1.1 -0.9 0.013 -0.000 -0.1134 0.1444 0.3162 0.0045 0.020764 -1.429530 11.83 510 830 0.00 0.00 0.0000 0.0000
0.395 4 10.189209 -0.484287 1.443271 0.564575 -0.350952 0.297546 0.00 0.00 -1.1 -0.9 0.032 -0.019 -0.1125 0.1429 0.3162 0.0045 0.020764 -1.429466 11.83 490 810 0.00 0.00 0.0000 0.0000
0.396 4 10.232363 -0.472300 1.457656 0.465393 -0.442505 0.335693 0.00 0.00 -1.1 -0.9 0.025 -0.019 -0.1116 0.1415 0.3162 0.0045 0.020764 -1.429477 11.83 490 810 0.00 0.00 0.0000 0.0000
0.397 4 10.258735 -0.438735 1.440874 0.396729 -0.610352 0.122070 0.00 0.00 -1.1 -0.9 0.025 -0.000 -0.1106 0.1400 0.3162 0.0045 0.020764 -1.429502 11.83 490 810 0.00 0.00 0.0000 0.0000
0.398 4 10.234760 -0.469902 1.424092 0.465393 -0.518799 0.122070 0.00 0.00 -1.1 -0.9 0.013 -0.013 -0.1097 0.1386 0.3162 0.0045 0.020764 -1.429559 11.83 490 810 0.00 0.00 0.0000 0.0000
0.399 4 10.213183 -0.400376 1.462451 0.343323 -0.457764 0.236511 0.00 0.00 -1.1 -0.9 0.019 -0.025 -0.1088 0.1371 0.3162 0.0045 0.020764 -1.429587 11.85 510 830 0.00 0.00 0.0000 0.0000
0.400 4 10.215581 -0.400376 1.340181 0.343323 -0.534058 0.144958 0.00 0.00 -1.1 -0.9 0.038 -0.006 -0.1080 0.1358 0.3162 0.0045 0.020764 -1.429693 11.85 490 810 0.00 0.00 0.0000 0.0000
0.401 4 10.222774 -0.457915 1.433682 0.305176 -0.656128 0.190735 0.00 0.00 -1.1 -0.9 0.019 -0.013 -0.1071 0.1344 0.3162 0.0045 0.020764 -1.429826 11.85 490 810 0.00 0.00 0.0000 0.0000
0.402 4 10.275517 -0.431543 1.448066 0.259399 -0.671387 0.221252 0.00 0.00 -1.1 -0.9 0.013 0.006 -0.1063 0.1331 0.3162 0.0045 0.020764 -1.429863 11.85 490 810 0.00 0.00 0.0000 0.0000
0.403 4 10.205991 -0.390786 1.366553 0.381470 -0.518799 0.251770 0.00 0.00 -1.1 -0.9 0.025 0.006 -0.1055 0.1318 0.3162 0.0045 0.020764 -1.429960 11.85 490 810 0.00 0.00 0.0000 0.0000
0.404 4 10.148452 -0.421953 1.368950 0.305176 -0.495911 0.213623 0.00 0.00 -1.1 -0.9 -0.006 0.006 -0.1046 0.1305 0.3162 0.0045 0.020764 -1.430112 11.88 510 830 0.00 0.00 0.0000 0.0000
0.405 4 10.203593 -0.345234 1.352168 0.251770 -0.671387 0.061035 0.00 0.00 -1.1 -0.9 0.006 0.006 -0.1038 0.1293 0.3162 0.0045 0.020764 -1.430276 11.88 490 810 0.00 0.00 0.0000 0.0000
0.406 4 10.213183 -0.381196 1.378540 0.198364 -0.572205 -0.137329 0.00 0.00 -1.1 -0.9 0.013 -0.000 -0.1031 0.1281 0.3162 0.0045 0.020764 -1.430436 11.88 490 810 0.00 0.00 0.0000 0.0000
0.407 4 10.165234 -0.448325 1.392925 0.221252 -0.556946 -0.129700 0.00 0.00 -1.1 -0.9 0.006 -0.019 -0.1023 0.1269 0.3162 0.0045 0.020764 -1.430549 11.88 490 810 0.00 0.00 0.0000 0.0000
0.408 4 10.217978 -0.407568 1.445669 0.167847 -0.648499 -0.045776 0.00 0.00 -1.1 -0.9 -0.006 -0.006 -0.1015 0.1257 0.3162 0.0045 0.020764 -1.430596 11.88 490 810 0.00 0.00 0.0000 0.0000
0.409 4 10.196401 -0.371606 1.385732 0.114441 -0.778198 -0.053406 0.00 0.00 -1.1 -0.9 0.019 -0.019 -0.1007 0.1245 0.3162 0.0045 0.020764 -1.430656 11.79 510 830 0.00 0.00 0.0000 0.0000
0.410 4 10.194004 -0.357222 1.476836 0.038147 -0.679016 -0.129700 0.00 0.00 -1.1 -0.9 0.006 -0.000 -0.1000 0.1234 0.3162 0.0045 0.020764 -1.430681 11.79 490 810 0.00 0.00 0.0000 0.0000
0.411 4 10.150849 -0.390786 1.462451 0.137329 -0.633240 -0.236511 0.00 0.00 -1.1 -0.9 0.000 -0.006 -0.0993 0.1223 0.3162 0.0045 0.020764 -1.430626 11.79 490 810 0.00 0.00 0.0000 0.0000
0.412 4 10.124477 -0.359619 1.402515 0.228882 -0.564575 -0.274658 0.00 0.00 -1.1 -0.9 0.000 -0.019 -0.0985 0.1212 0.3162 0.0045 0.020764 -1.430632 11.79 490 810 0.00 0.00 0.0000 0.0000
0.413 4 10.184414 -0.369209 1.385732 0.274658 -0.541687 -0.198364 0.00 0.00 -1.1 -0.9 0.006 0.013 -0.0978 0.1201 0.3162 0.0045 0.020764 -1.430716 11.79 490 810 0.00 0.00 0.0000 0.0000
0.414 4 10.167631 -0.330850 1.450464 0.183105 -0.457764 -0.251770 0.00 0.00 -1.1 -0.9 0.013 -0.019 -0.0971 0.1190 0.3162 0.0045 0.020764 -1.430756 11.88 510 830 0.00 0.00 0.0000 0.0000
