%  1    time 0.000 sec
%  2    mission (0) state 2
%  3  4  5 Acc x,y,z: 9.721704 -0.666494 2.594053
%  6  7  8 Gyro x,y,z: -0.022888 2.868652 -2.502441
%  9 10 Motor velocity ref left, right: 0.84 0.84
% 11 12 Motor voltage [V] left, right: 0.8 0.8
% 13 14 Motor current left, right [A]: 0.006 -0.044
% 15 16 Wheel velocity [r/s] left, right: 0.0000 0.0000
% 17 18 19 20 Pose x,y,h,tilt [m,m,rad,rad]: 0.0000 0.0000 0.000000 -1.310309
% 21    Battery voltage [V]: 11.90
% 22 23 Get data time [us]: 490 +ctrl 780
% 24 25 26 27 Extra pt.: balE[0], balU[0], balUI[0], balUI[1]: 0.00 0.0000 0.0000 0.0000
0.001 2 9.755268 -0.678481 2.603642 -0.007629 2.998352 -2.471924 1.68 1.68 0.9 0.9 0.019 -0.051 0.0000 0.0000 0.0000 0.0000 0.000000 -1.310252 11.90 490 710 0.00 0.00 0.0000 0.0000
0.002 2 9.733691 -0.671289 2.615630 -0.068665 3.105164 -2.441406 2.52 2.52 1.4 1.4 0.044 -0.019 0.0000 0.0000 0.0000 0.0000 0.000000 -1.310177 11.90 490 670 0.00 0.00 0.0000 0.0000
0.003 2 9.724101 -0.738418 2.591655 -0.205994 3.189087 -2.304077 3.36 3.36 1.9 1.9 0.127 0.044 0.0000 0.0000 0.0000 0.0000 0.000000 -1.310105 11.90 490 670 0.00 0.00 0.0000 0.0000
0.004 2 9.714512 -0.632930 2.598848 -0.160217 3.105164 -1.998901 4.20 4.20 2.4 2.4 0.247 0.196 0.0000 0.0000 0.0000 0.0000 0.000000 -1.310046 11.83 510 690 0.00 0.00 0.0000 0.0000
0.005 2 9.709717 -0.625737 2.618027 -0.144958 3.273010 -1.968384 5.04 5.04 2.9 2.9 0.393 0.374 0.0000 0.0000 0.0000 0.0000 0.000000 -1.309958 11.83 490 670 0.00 0.00 0.0000 0.0000
0.006 2 9.728896 -0.656904 2.579668 -0.167847 3.570557 -2.235413 5.88 5.88 3.5 3.5 0.538 0.475 0.0000 0.0000 0.0000 0.0000 0.000000 -1.309891 11.83 490 670 0.00 0.00 0.0000 0.0000
0.007 2 9.652178 -0.724033 2.582065 -0.335693 3.601074 -2.227783 6.72 6.72 4.0 4.0 0.754 0.640 0.0000 0.0000 0.0000 0.0000 0.000000 -1.309841 11.83 490 670 0.00 0.00 0.0000 0.0000
0.008 2 9.644985 -0.644917 2.519731 -0.068665 3.517151 -1.968384 7.56 7.56 4.6 4.6 0.899 0.754 0.0000 0.0000 0.0000 0.0000 0.000000 -1.309828 11.83 490 670 0.00 0.00 0.0000 0.0000
0.009 2 9.676152 -0.601763 2.505347 -0.244141 4.089355 -1.899719 8.40 8.40 5.2 5.2 0.976 0.906 0.0000 0.0000 0.0000 0.0000 0.000000 -1.309892 11.52 510 690 0.00 0.00 0.0000 0.0000
0.010 2 9.606626 -0.714443 2.490962 -0.770569 4.333496 -2.014160 9.24 9.24 5.8 5.8 1.172 1.058 0.0000 0.0000 0.0002 0.0000 0.002595 -1.309965 11.52 490 700 0.00 0.00 0.0000 0.0000
0.011 2 9.522715 -0.695264 2.553296 -0.434875 4.768372 -1.800537 10.08 10.08 6.4 6.4 1.337 1.210 0.0000 0.0000 0.0004 0.0000 0.000000 -1.309945 11.52 490 700 0.00 0.00 0.0000 0.0000
0.012 2 9.462778 -0.676084 2.483769 -0.274658 5.340576 -1.731873 10.92 10.92 7.0 3.6 1.539 1.368 0.0000 5.1613 0.0006 0.0000 0.002595 -1.309888 11.52 490 760 0.00 0.00 0.0000 0.0000
0.013 2 9.496343 -0.762393 2.541308 -0.267029 4.943848 -1.747131 11.76 11.76 3.7 4.0 1.691 1.387 5.9310 5.1613 0.0008 0.0000 0.000000 -1.309835 11.52 490 820 0.00 0.00 0.0000 0.0000
0.014 2 10.253941 0.124668 2.356704 0.946045 -0.114441 -3.288269 12.61 12.61 4.2 3.9 1.634 1.172 5.9310 7.6833 0.0012 0.0000 0.000000 -1.310135 11.53 510 780 0.00 0.00 0.0000 0.0000
0.015 2 11.488632 -6.168667 1.400117 -8.369446 -3.646851 -5.897522 13.45 13.45 4.2 3.2 1.381 1.033 8.2961 9.8706 0.0014 0.0000 0.002595 -1.311892 11.53 490 750 0.00 0.00 0.0000 0.0000
0.016 2 8.091431 0.139053 5.087412 8.285522 11.535645 5.081177 14.29 14.29 3.6 3.7 1.242 0.880 10.4021 9.8706 0.0016 0.0000 0.000000 -1.310192 11.53 490 750 0.00 0.00 0.0000 0.0000
0.017 2 6.916675 15.070439 8.491806 19.042969 25.001526 0.564575 15.13 15.13 3.5 3.7 1.140 0.798 11.5579 10.8182 0.0020 0.0000 0.000000 -1.300695 11.53 490 720 0.00 0.00 0.0000 0.0000
0.018 2 12.011279 -9.119941 -1.819673 -22.682190 -9.277344 -16.616821 15.97 15.97 3.3 3.5 0.931 0.741 12.7573 12.1826 0.0024 0.0000 0.000000 -1.298611 11.53 490 720 0.00 0.00 0.0000 0.0000
0.019 2 13.063765 -12.097588 -9.136724 -10.887146 -22.727966 4.226685 16.81 16.81 3.5 4.4 0.792 0.760 13.3888 11.5579 0.0028 0.0000 0.000000 -1.311809 11.71 510 750 0.00 0.00 0.0000 0.0000
0.020 2 7.566387 9.817602 13.526474 6.370544 23.399353 18.943787 17.65 17.65 3.8 3.9 0.652 0.646 13.6593 13.5227 0.0032 0.0000 0.000000 -1.312472 11.71 490 720 0.00 0.00 0.0000 0.0000
0.021 2 7.201972 5.221670 9.232622 -1.792908 16.242981 -6.988525 18.49 18.49 4.2 4.2 0.678 0.709 13.9409 13.7987 0.0036 0.0000 0.000000 -1.297748 11.71 490 720 0.00 0.00 0.0000 0.0000
0.022 2 10.802958 -14.562178 -10.232363 -1.960754 -10.566711 -19.348145 19.33 19.33 4.5 4.4 0.703 0.709 14.3858 14.3858 0.0040 0.0000 0.000000 -1.301620 11.71 490 720 0.00 0.00 0.0000 0.0000
0.023 2 10.428955 2.596450 3.008813 16.883850 9.925842 10.124207 20.17 20.17 4.9 5.1 0.823 0.779 14.6986 14.2344 0.0044 0.0000 0.000000 -1.311682 11.71 490 730 0.00 0.00 0.0000 0.0000
0.024 2 9.726499 3.255752 9.666562 -10.101318 5.317688 6.355286 21.01 21.01 4.5 5.2 0.899 0.798 16.2924 15.0252 0.0052 0.0000 0.000000 -1.306155 11.60 510 740 0.00 0.00 0.0000 0.0000
0.025 2 9.294956 -1.438477 5.859395 -15.838623 -13.465881 -8.689880 21.85 21.85 4.8 4.9 0.944 0.906 16.6947 16.4911 0.0056 0.0000 0.000000 -1.298151 11.60 490 720 0.00 0.00 0.0000 0.0000
0.026 2 12.289385 -1.074062 -7.911621 15.754700 23.658752 -0.450134 22.69 22.69 4.9 5.4 1.020 0.944 17.5619 16.6947 0.0060 0.0000 0.000000 -1.303556 11.60 490 730 0.00 0.00 0.0000 0.0000
0.027 2 10.433750 -4.476059 -1.474438 6.683350 11.032104 -1.136780 23.53 23.53 4.9 5.3 0.874 0.906 18.5242 17.7930 0.0066 0.0000 -0.002595 -1.315601 11.60 480 750 0.00 0.00 0.0000 0.0000
0.028 2 5.427851 6.070371 17.139448 -6.919861 -10.894775 -3.677368 24.37 24.37 5.3 5.2 0.849 0.950 18.7815 19.0460 0.0072 -0.0000 0.000000 -1.309527 11.60 490 740 0.00 0.00 0.0000 0.0000
0.029 2 9.388456 -1.560747 0.990151 -5.859375 16.380310 -1.304626 25.21 25.21 6.2 5.1 0.893 0.944 18.2739 20.1831 0.0076 -0.0000 0.000000 -1.301097 11.56 510 730 0.00 0.00 0.0000 0.0000
0.030 2 11.488632 -5.770689 -7.048535 0.930786 -6.202698 4.890442 26.05 26.05 5.5 5.5 1.083 0.957 20.4889 20.4889 0.0084 -0.0000 0.000000 -1.310758 11.56 490 700 0.00 0.00 0.0000 0.0000
0.031 2 10.023784 4.166787 4.358584 2.388000 -1.716614 0.160217 26.89 26.89 5.7 5.1 1.134 0.938 21.1292 22.1684 0.0093 -0.0000 0.000000 -1.317363 11.56 480 690 0.00 0.00 0.0000 0.0000
0.032 2 10.457725 -0.762393 7.851684 -7.026672 13.580322 -8.834839 27.73 27.73 5.9 5.2 1.064 0.868 21.8108 22.9198 0.0097 -0.0000 0.000000 -1.311842 11.56 490 700 0.00 0.00 0.0000 0.0000
0.033 2 10.222774 -3.600986 3.867104 -1.609802 -5.081177 2.777100 28.57 28.57 5.6 5.5 1.058 0.817 23.3150 23.3150 0.0105 -0.0000 0.000000 -1.306939 11.56 490 690 0.00 0.00 0.0000 0.0000
0.034 2 9.582651 1.285039 -3.392407 6.965637 13.374329 7.003784 29.41 29.41 6.2 5.6 1.204 0.842 23.3150 24.1477 0.0113 -0.0000 0.000000 -1.311880 11.52 510 720 0.00 0.00 0.0000 0.0000
0.035 2 8.429472 -3.562627 1.469643 -3.555298 8.377075 -9.422302 30.25 30.25 6.5 5.7 1.261 0.868 23.7240 25.0420 0.0119 0.0000 0.002595 -1.318479 11.52 490 720 0.00 0.00 0.0000 0.0000
0.036 2 8.364741 -0.961382 4.782934 5.424500 -8.453369 -5.752563 31.09 31.09 6.1 5.7 1.286 0.823 25.5145 26.0052 0.0127 0.0000 0.002595 -1.316624 11.52 490 730 0.00 0.00 0.0000 0.0000
0.037 2 10.273120 3.356445 6.240591 4.203796 8.750916 7.141113 31.93 31.93 6.4 6.0 1.077 0.849 26.0052 26.5151 0.0135 0.0000 0.002595 -1.311107 11.52 490 730 0.00 0.00 0.0000 0.0000
0.038 2 12.131152 -1.786108 3.888681 -13.206482 0.160217 -0.144958 32.77 32.77 6.3 5.9 1.109 0.906 27.0454 27.5973 0.0143 0.0000 0.002595 -1.307696 11.52 490 720 0.00 0.00 0.0000 0.0000
0.039 2 11.687622 -1.798096 -3.123892 -1.174927 3.990173 -4.386902 33.61 33.61 6.6 5.8 1.210 0.944 27.5973 28.7717 0.0151 0.0000 0.002595 -1.312384 11.41 510 750 0.00 0.00 0.0000 0.0000
0.040 2 8.117803 -0.527441 3.716064 5.836487 22.087097 0.724792 34.45 34.45 6.2 6.7 1.178 0.976 29.3972 28.1723 0.0161 0.0000 0.000000 -1.315611 11.41 490 730 0.00 0.00 0.0000 0.0000
0.041 2 6.588223 0.342837 5.607661 1.602173 6.500244 -1.419067 35.29 35.29 6.3 6.2 1.083 0.849 30.0504 30.0504 0.0169 0.0000 0.000000 -1.309185 11.41 490 690 0.00 0.00 0.0000 0.0000
0.042 2 8.254457 -0.206182 -0.956587 1.022339 -0.350952 -3.890991 36.13 36.13 6.5 7.4 1.096 0.899 30.7334 28.7717 0.0177 0.0000 0.000000 -1.308473 11.41 490 700 0.00 0.00 0.0000 0.0000
0.043 2 9.999809 -2.642002 1.318604 -9.223938 -8.163452 3.067017 36.97 36.97 6.7 6.6 1.128 1.020 31.4481 31.4481 0.0187 0.0000 0.002595 -1.313585 11.41 490 720 0.00 0.00 0.0000 0.0000
0.044 2 12.387680 0.007192 4.212339 -7.202148 -11.825562 3.723145 37.82 37.82 6.8 6.7 1.020 0.988 32.1969 32.1969 0.0197 0.0000 0.000000 -1.314308 11.50 510 750 0.00 0.00 0.0000 0.0000
0.045 2 12.663388 3.027993 5.255234 3.799438 11.390686 -2.639771 38.66 38.66 6.9 6.8 1.014 1.014 32.9822 32.9822 0.0205 0.0000 0.000000 -1.312250 11.50 490 700 0.00 0.00 0.0000 0.0000
0.046 2 10.172426 -2.510142 4.653471 -1.419067 18.432617 -5.424500 39.50 39.50 7.0 6.4 1.140 1.039 33.8067 34.6736 0.0217 0.0000 0.000000 -1.308969 11.50 490 690 0.00 0.00 0.0000 0.0000
0.047 2 8.230483 -3.624961 -1.503208 8.026123 9.803772 -3.280640 40.34 40.34 7.1 7.0 1.071 0.957 34.6736 34.6736 0.0225 0.0000 0.000000 -1.311450 11.50 490 700 0.00 0.00 0.0000 0.0000
0.048 2 7.549604 3.037583 2.011470 10.139465 11.184692 -0.068665 41.18 41.18 7.1 6.5 1.071 0.899 35.5860 36.5478 0.0237 0.0000 0.000000 -1.315615 11.50 490 700 0.00 0.00 0.0000 0.0000
0.049 2 8.467832 0.546621 1.726172 -8.621216 -2.906799 -1.136780 42.02 42.02 7.2 6.5 1.121 0.925 36.5478 37.5630 0.0249 0.0000 0.000000 -1.316027 11.44 510 720 0.00 0.00 0.0000 0.0000
0.050 2 9.644985 -0.879868 2.035444 -13.343811 -12.786865 -0.305176 42.86 42.86 7.2 7.0 1.140 0.880 37.5630 37.5630 0.0257 0.0000 0.000000 -1.317158 11.44 490 700 0.00 0.00 0.0000 0.0000
0.051 2 11.354375 -2.788247 4.919590 -9.231567 -2.372742 2.716064 43.70 43.70 7.7 6.3 1.020 0.861 37.5630 39.7726 0.0270 0.0000 0.000000 -1.316204 11.44 490 700 0.00 0.00 0.0000 0.0000
0.052 2 12.500360 -1.205923 1.623081 5.920410 7.804871 0.755310 44.54 44.54 7.7 6.9 1.071 0.868 38.6363 39.7726 0.0282 0.0000 0.000000 -1.315871 11.44 490 700 0.00 0.00 0.0000 0.0000
0.053 2 10.752612 -1.519990 0.549019 10.917664 15.502930 -6.332397 45.38 45.38 6.9 8.0 1.045 0.811 40.9779 38.6363 0.0294 0.0000 0.000000 -1.318934 11.44 490 690 0.00 0.00 0.0000 0.0000
0.054 2 7.645503 -0.712046 6.710493 3.288269 9.407043 -4.753113 46.22 46.22 7.5 7.3 1.102 0.899 40.9779 40.9779 0.0306 0.0000 0.000000 -1.316069 11.36 510 720 0.00 0.00 0.0000 0.0000
0.055 2 8.074648 0.285298 3.735244 0.434875 4.035950 0.633240 47.06 47.06 7.3 7.2 1.153 0.976 42.2584 42.2584 0.0318 0.0000 0.000000 -1.309575 11.36 490 680 0.00 0.00 0.0000 0.0000
0.056 2 10.009399 -2.591655 -3.174238 -0.823975 -3.974915 0.717163 47.90 47.90 7.8 7.7 1.033 0.925 42.2584 42.2584 0.0330 0.0000 0.000000 -1.313497 11.36 490 680 0.00 0.00 0.0000 0.0000
0.057 2 9.736089 0.489082 3.195815 0.389099 -6.767273 -0.991821 48.74 48.74 8.4 8.2 1.064 0.963 42.2584 42.2584 0.0342 0.0000 0.000000 -1.318586 11.36 490 680 0.00 0.00 0.0000 0.0000
0.058 2 10.577598 -0.417158 7.985942 -3.997803 5.714417 -4.188538 49.58 49.58 8.9 8.1 1.153 1.090 42.2584 43.6216 0.0354 0.0000 0.000000 -1.314046 11.36 490 690 0.00 0.00 0.0000 0.0000
0.059 2 11.337592 -1.169961 2.402256 5.859375 6.706238 -0.686646 50.00 50.00 7.6 7.6 1.159 0.982 45.0756 45.0756 0.0368 0.0000 0.002595 -1.310552 11.25 510 750 0.00 0.00 0.0000 0.0000
0.060 2 9.544291 1.347373 -0.378799 6.500244 14.015198 2.502441 50.00 50.00 6.8 6.8 1.254 1.014 46.6300 46.6300 0.0382 0.0000 0.000000 -1.313852 11.25 490 720 0.00 0.00 0.0000 0.0000
0.061 2 7.139638 0.676084 2.570078 -5.455017 11.421204 -4.150391 50.00 50.00 6.8 6.8 1.090 0.918 46.6300 46.6300 0.0394 0.0000 0.000000 -1.315692 11.25 490 690 0.00 0.00 0.0000 0.0000
0.062 2 7.870864 -1.668633 2.483769 -5.958557 -9.391785 -3.189087 50.00 50.00 6.8 6.8 0.950 0.861 46.6300 46.6300 0.0408 0.0000 0.002595 -1.314278 11.25 490 720 0.00 0.00 0.0000 0.0000
0.063 2 10.661509 -0.752803 2.232036 -3.723145 -10.498047 6.843567 50.00 50.00 5.9 5.9 0.836 0.779 48.2953 48.2953 0.0422 0.0000 0.000000 -1.314460 11.25 490 720 0.00 0.00 0.0000 0.0000
0.064 2 11.994496 4.078081 2.450205 1.884460 2.624512 3.990173 50.00 50.00 5.9 5.9 0.754 0.690 48.2953 48.2953 0.0434 0.0000 0.000000 -1.315565 11.63 510 720 0.00 0.00 0.0000 0.0000
0.065 2 12.135947 -0.990151 1.822070 -3.601074 6.683350 -8.979797 50.00 50.00 5.0 5.0 0.684 0.602 50.0841 50.0841 0.0451 0.0000 0.000000 -1.317068 11.63 490 690 0.00 0.00 0.0000 0.0000
0.066 2 10.493686 -4.653471 0.853496 2.609253 5.752563 -5.767822 50.00 50.00 5.9 5.0 0.450 0.469 48.2953 50.0841 0.0463 0.0000 0.000000 -1.319706 11.63 490 700 0.00 0.00 0.0000 0.0000
0.067 2 8.347959 1.567939 2.502949 10.536194 12.977600 3.196716 50.00 50.00 5.0 5.0 0.405 0.348 50.0841 50.0841 0.0479 0.0000 0.000000 -1.320828 11.63 490 690 0.00 0.00 0.0000 0.0000
0.068 2 7.866069 0.074321 4.912397 -3.479004 2.128601 -4.158020 50.00 50.00 5.0 5.0 0.348 0.291 50.0841 50.0841 0.0493 0.0000 0.002595 -1.317236 11.63 490 730 0.00 0.00 0.0000 0.0000
0.069 2 9.386059 -2.939287 2.761875 -6.736755 -9.277344 -5.096436 50.00 50.00 5.0 4.9 0.342 0.222 50.0841 50.0841 0.0507 0.0000 0.000000 -1.313958 11.79 510 750 0.00 0.00 0.0000 0.0000
0.070 2 11.330400 -0.258926 1.829263 3.761292 4.905701 3.303528 50.00 50.00 5.0 4.9 0.304 0.234 50.0841 50.0841 0.0521 0.0000 0.002595 -1.314664 11.79 490 720 0.00 0.00 0.0000 0.0000
0.071 2 11.598916 -2.347114 2.656387 -2.098083 4.661560 -0.656128 50.00 50.00 4.9 4.9 0.241 0.215 50.0841 50.0841 0.0535 0.0000 0.000000 -1.315839 11.79 490 720 0.00 0.00 0.0000 0.0000
0.072 2 9.704922 -3.241367 1.479233 -0.541687 1.174927 -5.134583 50.00 50.00 4.9 4.9 0.247 0.209 50.0841 50.0841 0.0549 0.0000 0.002595 -1.317110 11.79 490 720 0.00 0.00 0.0000 0.0000
0.073 2 7.480078 -0.477095 4.792524 8.422852 10.780334 -0.221252 50.00 50.00 4.9 5.9 0.241 0.184 50.0841 48.2953 0.0563 0.0000 0.000000 -1.314891 11.79 490 730 0.00 0.00 0.0000 0.0000
0.074 2 7.563989 0.177412 4.363379 4.753113 0.572205 1.205444 50.00 50.00 4.9 5.0 0.234 0.247 50.0841 50.0841 0.0577 0.0000 0.002595 -1.309038 11.77 510 750 0.00 0.00 0.0000 0.0000
0.075 2 9.810410 -1.040498 -1.347373 0.175476 -7.110596 -1.708984 50.00 50.00 4.9 5.0 0.253 0.310 50.0841 50.0841 0.0591 0.0000 0.000000 -1.310448 11.77 490 730 0.00 0.00 0.0000 0.0000
0.076 2 11.124218 1.846045 0.774380 1.838684 -0.907898 0.389099 50.00 50.00 4.9 5.0 0.266 0.260 50.0841 50.0841 0.0605 0.0000 0.002595 -1.316336 11.77 490 720 0.00 0.00 0.0000 0.0000
0.077 2 10.977973 2.419038 5.614853 -3.623962 0.541687 0.282288 50.00 50.00 4.9 5.0 0.272 0.222 50.0841 50.0841 0.0620 0.0000 0.000000 -1.316009 11.77 490 730 0.00 0.00 0.0000 0.0000
0.078 2 10.584789 0.635327 4.169184 -3.067017 2.182007 -2.799988 50.00 50.00 4.9 4.9 0.279 0.196 50.0841 50.0841 0.0634 0.0000 0.002595 -1.312635 11.77 490 730 0.00 0.00 0.0000 0.0000
0.079 2 10.527250 -0.009590 1.627876 3.974915 8.941650 -2.166748 50.00 50.00 4.9 5.9 0.304 0.190 50.0841 48.2953 0.0648 0.0000 0.000000 -1.312417 11.85 510 750 0.00 0.00 0.0000 0.0000
0.080 2 9.997412 0.455518 1.222705 4.615784 7.369995 -2.388000 50.00 50.00 5.9 5.0 0.272 0.260 48.2953 50.0841 0.0662 0.0000 0.002595 -1.314668 11.85 490 730 0.00 0.00 0.0000 0.0000
0.081 2 9.158300 -0.249336 2.279985 0.411987 0.885010 -4.600525 50.00 50.00 5.9 6.8 0.272 0.266 48.2953 46.6300 0.0676 0.0000 0.000000 -1.316048 11.85 490 730 0.00 0.00 0.0000 0.0000
0.082 2 8.908964 -0.759995 3.974990 -3.509521 -1.953125 -2.433777 50.00 50.00 5.0 5.0 0.393 0.304 50.0841 50.0841 0.0690 0.0000 0.002595 -1.314530 11.85 490 730 0.00 0.00 0.0000 0.0000
0.083 2 9.556279 -2.284780 3.258149 -4.684448 -3.623962 0.213623 50.00 50.00 5.0 5.0 0.418 0.329 50.0841 50.0841 0.0706 0.0001 0.002595 -1.312245 11.85 490 720 0.00 0.00 0.0000 0.0000
0.084 2 10.292299 -4.317827 0.834316 0.274658 -2.342224 -1.976013 50.00 50.00 5.0 5.0 0.355 0.298 50.0841 50.0841 0.0718 0.0001 0.002595 -1.313362 11.79 510 750 0.00 0.00 0.0000 0.0000
0.085 2 10.150849 -3.085532 1.400117 8.277893 3.883362 -3.662109 50.00 50.00 5.0 5.0 0.234 0.234 50.0841 50.0841 0.0734 0.0001 0.002595 -1.316288 11.79 490 720 0.00 0.00 0.0000 0.0000
0.086 2 9.235020 -1.028511 3.787988 8.415222 7.858276 -2.922058 50.00 50.00 4.9 4.9 0.215 0.209 50.0841 50.0841 0.0746 0.0001 0.002595 -1.316015 11.79 490 720 0.00 0.00 0.0000 0.0000
0.087 2 8.463037 -0.647314 3.608179 3.074646 4.974365 -1.899719 50.00 50.00 6.8 4.9 0.215 0.203 46.6300 50.0841 0.0762 0.0001 0.002595 -1.313105 11.79 490 730 0.00 0.00 0.0000 0.0000
0.088 2 8.820258 -1.567939 1.603901 -1.640320 2.281189 -0.007629 50.00 50.00 5.0 4.9 0.336 0.215 50.0841 50.0841 0.0776 0.0001 0.005191 -1.312374 11.79 490 730 0.00 0.00 0.0000 0.0000
0.089 2 9.503535 0.362017 1.006934 0.999451 2.128601 1.785278 50.00 50.00 5.0 4.9 0.374 0.184 50.0841 50.0841 0.0791 0.0001 0.002595 -1.314627 11.82 510 750 0.00 0.00 0.0000 0.0000
0.090 2 10.373814 2.740298 2.740298 3.334045 1.930237 -0.450134 50.00 50.00 5.0 4.9 0.336 0.171 50.0841 50.0841 0.0805 0.0001 0.005191 -1.316063 11.82 490 730 0.00 0.00 0.0000 0.0000
0.091 2 10.975575 1.050088 4.404136 -3.837585 1.983643 -2.868652 50.00 50.00 5.0 4.9 0.361 0.196 50.0841 50.0841 0.0819 0.0001 0.002595 -1.314738 11.82 490 730 0.00 0.00 0.0000 0.0000
0.092 2 10.659111 1.721377 3.265342 -1.708984 3.906250 0.358582 50.00 50.00 4.9 4.9 0.329 0.203 50.0841 50.0841 0.0833 0.0001 0.005191 -1.313036 11.82 490 730 0.00 0.00 0.0000 0.0000
0.093 2 10.131670 1.201128 2.658784 -1.083374 4.707336 0.045776 50.00 50.00 6.8 3.9 0.317 0.203 46.6300 52.0104 0.0847 0.0001 0.002595 -1.312581 11.82 490 730 0.00 0.00 0.0000 0.0000
0.094 2 9.839179 -1.213115 0.477095 -1.350403 -1.358032 -4.661560 50.00 50.00 5.9 4.9 0.418 0.114 48.2953 50.0841 0.0861 0.0001 0.005191 -1.314645 11.75 510 750 0.00 0.00 0.0000 0.0000
0.095 2 9.484355 -0.067129 1.898789 3.486633 -1.190186 -4.592896 50.00 50.00 5.9 4.9 0.475 0.101 48.2953 50.0841 0.0875 0.0001 0.002595 -1.317303 11.75 490 730 0.00 0.00 0.0000 0.0000
0.096 2 9.237416 -0.584980 5.751509 -1.190186 0.709534 -2.899170 50.00 50.00 5.0 4.9 0.469 0.108 50.0841 50.0841 0.0889 0.0001 0.005191 -1.314857 11.75 490 730 0.00 0.00 0.0000 0.0000
0.097 2 9.537099 -2.531719 2.419038 -1.388550 0.015259 -2.899170 50.00 50.00 5.0 4.9 0.431 0.190 50.0841 50.0841 0.0905 0.0001 0.005191 -1.311945 11.75 490 720 0.00 0.00 0.0000 0.0000
0.098 2 9.959052 -1.968315 -0.093501 6.149292 5.325317 -3.807068 50.00 50.00 5.0 4.9 0.285 0.203 50.0841 50.0841 0.0917 0.0001 0.005191 -1.314658 11.75 490 720 0.00 0.00 0.0000 0.0000
0.099 2 9.817602 -4.111645 2.347114 2.243042 4.737854 -5.554199 50.00 50.00 5.9 3.9 0.215 0.190 48.2953 52.0104 0.0933 0.0001 0.005191 -1.317413 11.77 510 750 0.00 0.00 0.0000 0.0000
0.100 2 9.817602 -4.111645 2.347114 4.341125 0.961304 -3.501892 50.00 50.00 5.0 4.9 0.304 0.114 50.0841 50.0841 0.0945 0.0001 0.005191 -1.317734 11.77 490 720 0.00 0.00 0.0000 0.0000
0.101 2 9.268583 -3.016006 2.294370 6.340027 6.179810 0.297546 50.00 50.00 5.0 4.9 0.348 0.089 50.0841 50.0841 0.0959 0.0002 0.007786 -1.317957 11.77 490 730 0.00 0.00 0.0000 0.0000
0.102 2 8.705180 -0.184604 4.476059 0.907898 4.249573 -0.648499 50.00 50.00 5.0 4.9 0.260 0.171 50.0841 50.0841 0.0974 0.0002 0.005191 -1.315769 11.77 490 730 0.00 0.00 0.0000 0.0000
0.103 2 9.000068 -0.234951 3.521870 2.365112 0.427246 -2.815247 50.00 50.00 5.0 5.8 0.209 0.177 50.0841 48.2953 0.0990 0.0002 0.005191 -1.312383 11.77 490 730 0.00 0.00 0.0000 0.0000
0.104 2 9.937475 -1.479233 0.011987 3.341675 2.243042 -0.114441 50.00 50.00 4.9 4.9 0.196 0.241 50.0841 50.0841 0.1002 0.0002 0.005191 -1.313772 11.77 510 740 0.00 0.00 0.0000 0.0000
0.105 2 9.882334 0.330850 2.049829 1.815796 -0.961304 1.426697 50.00 50.00 4.9 4.9 0.228 0.247 50.0841 50.0841 0.1016 0.0002 0.007786 -1.316814 11.77 490 730 0.00 0.00 0.0000 0.0000
0.106 2 9.947065 4.454482 4.838076 -6.034851 -3.501892 -3.257751 50.00 50.00 4.9 5.9 0.203 0.253 50.0841 48.2953 0.1030 0.0002 0.005191 -1.315374 11.77 490 730 0.00 0.00 0.0000 0.0000
0.107 2 10.987563 1.038101 3.286919 -4.776001 -2.853394 -1.861572 50.00 50.00 4.9 4.9 0.165 0.272 50.0841 50.0841 0.1044 0.0002 0.007786 -1.313127 11.77 490 730 0.00 0.00 0.0000 0.0000
0.108 2 10.980371 -0.194194 1.733364 0.984192 4.890442 -0.816345 50.00 50.00 4.9 4.9 0.190 0.272 50.0841 50.0841 0.1058 0.0002 0.005191 -1.313784 11.77 490 730 0.00 0.00 0.0000 0.0000
0.109 2 10.292299 1.093242 2.989634 1.586914 3.517151 -6.065369 50.00 50.00 4.9 5.9 0.184 0.253 50.0841 48.2953 0.1074 0.0002 0.005191 -1.314451 11.77 510 750 0.00 0.00 0.0000 0.0000
0.110 2 9.625805 -0.724033 2.764272 6.172180 1.785278 -5.828857 50.00 50.00 4.9 4.9 0.190 0.253 50.0841 50.0841 0.1086 0.0002 0.005191 -1.313914 11.77 490 720 0.00 0.00 0.0000 0.0000
0.111 2 9.088774 0.362017 1.443271 -3.334045 4.150391 -3.768921 50.00 50.00 4.9 4.9 0.190 0.304 50.0841 50.0841 0.1100 0.0002 0.007786 -1.314621 11.77 490 730 0.00 0.00 0.0000 0.0000
0.112 2 8.956914 -2.565283 4.459277 -4.089355 -2.662659 -3.402710 50.00 50.00 4.9 4.9 0.215 0.253 50.0841 50.0841 0.1114 0.0002 0.005191 -1.313548 11.77 490 730 0.00 0.00 0.0000 0.0000
0.113 2 9.419623 -4.154799 1.706992 4.394531 0.160217 -1.983643 50.00 50.00 4.9 4.9 0.222 0.228 50.0841 50.0841 0.1128 0.0003 0.007786 -1.312315 11.77 490 730 0.00 0.00 0.0000 0.0000
0.114 2 9.786435 -3.972593 -0.002397 8.583069 7.133484 -3.295898 50.00 50.00 4.9 5.9 0.209 0.177 50.0841 48.2953 0.1143 0.0003 0.005191 -1.315598 11.77 510 740 0.00 0.00 0.0000 0.0000
0.115 2 9.119941 -0.661699 3.212598 2.037048 2.883911 -6.271362 50.00 50.00 4.9 5.0 0.209 0.247 50.0841 50.0841 0.1157 0.0003 0.007786 -1.317214 11.77 490 730 0.00 0.00 0.0000 0.0000
0.116 2 9.088774 -2.968056 3.943823 3.509521 -0.747681 -0.267029 50.00 50.00 5.9 5.0 0.196 0.310 48.2953 50.0841 0.1171 0.0003 0.005191 -1.314810 11.77 490 740 0.00 0.00 0.0000 0.0000
0.117 2 9.879936 0.182207 3.222188 1.281738 6.095886 2.883911 50.00 50.00 5.0 5.0 0.304 0.253 50.0841 50.0841 0.1185 0.0003 0.007786 -1.312657 11.77 490 730 0.00 0.00 0.0000 0.0000
0.118 2 10.148452 1.256269 0.740815 -5.355835 0.885010 -3.067017 50.00 50.00 5.0 5.0 0.310 0.222 50.0841 50.0841 0.1197 0.0003 0.007786 -1.313866 11.77 490 720 0.00 0.00 0.0000 0.0000
0.119 2 9.048018 -0.100693 2.920107 -1.403809 0.968933 -2.609253 50.00 50.00 5.0 4.9 0.266 0.184 50.0841 50.0841 0.1213 0.0003 0.007786 -1.315125 11.85 510 750 0.00 0.00 0.0000 0.0000
0.120 2 9.062402 0.815137 3.960605 4.753113 6.851196 1.350403 50.00 50.00 5.0 4.9 0.266 0.209 50.0841 50.0841 0.1225 0.0003 0.007786 -1.312950 11.85 490 730 0.00 0.00 0.0000 0.0000
0.121 2 10.352236 3.030391 2.769067 -2.182007 -1.480103 -2.738953 50.00 50.00 5.9 4.9 0.108 0.203 48.2953 50.0841 0.1241 0.0003 0.007786 -1.311342 11.85 480 720 0.00 0.00 0.0000 0.0000
0.122 2 11.419106 0.759995 0.867881 -8.102417 -4.386902 -6.034851 50.00 50.00 5.9 5.9 0.291 0.215 48.2953 48.2953 0.1253 0.0003 0.007786 -1.313192 11.85 490 720 0.00 0.00 0.0000 0.0000
0.123 2 11.148193 -1.635068 1.524785 -1.052856 4.165649 -1.716614 50.00 50.00 5.9 5.0 0.462 0.253 48.2953 50.0841 0.1269 0.0004 0.007786 -1.316198 11.85 490 720 0.00 0.00 0.0000 0.0000
0.124 2 9.827192 1.527183 6.329297 -0.267029 7.385254 -4.684448 50.00 50.00 5.9 5.0 0.519 0.253 48.2953 50.0841 0.1283 0.0004 0.010382 -1.314128 11.74 510 760 0.00 0.00 0.0000 0.0000
0.125 2 8.748335 -1.769326 5.809048 3.860474 2.067566 -8.460999 50.00 50.00 5.0 5.0 0.526 0.228 50.0841 50.0841 0.1297 0.0004 0.007786 -1.307660 11.74 490 720 0.00 0.00 0.0000 0.0000
0.126 2 9.122338 -5.370312 -0.079116 13.877869 6.393433 -4.562378 50.00 50.00 5.0 5.0 0.418 0.228 50.0841 50.0841 0.1311 0.0004 0.010382 -1.307080 11.74 490 720 0.00 0.00 0.0000 0.0000
0.127 2 10.098105 -1.412104 -1.697402 2.006531 4.112244 -3.684998 50.00 50.00 5.9 4.9 0.291 0.222 48.2953 50.0841 0.1326 0.0004 0.007786 -1.313946 11.74 490 730 0.00 0.00 0.0000 0.0000
0.128 2 9.350098 -0.911035 3.241367 -6.652832 -2.067566 -2.830505 50.00 50.00 5.0 4.9 0.323 0.184 50.0841 50.0841 0.1340 0.0004 0.010382 -1.317359 11.74 490 730 0.00 0.00 0.0000 0.0000
0.129 2 7.504053 -0.043154 5.202490 -2.227783 4.974365 -0.915527 50.00 50.00 5.0 4.9 0.361 0.196 50.0841 50.0841 0.1354 0.0004 0.007786 -1.313046 11.75 510 760 0.00 0.00 0.0000 0.0000
0.130 2 8.369535 -1.452861 3.356445 -2.716064 -2.975464 -1.571655 50.00 50.00 5.0 4.9 0.329 0.222 50.0841 50.0841 0.1368 0.0004 0.010382 -1.308355 11.75 490 730 0.00 0.00 0.0000 0.0000
0.131 2 10.910845 -5.768291 0.738418 10.704041 1.182556 -0.534058 50.00 50.00 5.0 5.9 0.329 0.190 50.0841 48.2953 0.1382 0.0005 0.007786 -1.309122 11.75 490 730 0.00 0.00 0.0000 0.0000
0.132 2 11.800303 1.407310 0.580186 6.698608 16.616821 -2.464294 50.00 50.00 4.9 5.0 0.367 0.234 50.0841 50.0841 0.1396 0.0005 0.010382 -1.312994 11.75 490 730 0.00 0.00 0.0000 0.0000
0.133 2 10.225170 3.919848 5.518955 -7.492065 2.693176 -4.257202 50.00 50.00 4.9 5.0 0.329 0.279 50.0841 50.0841 0.1410 0.0005 0.007786 -1.312545 11.75 490 740 0.00 0.00 0.0000 0.0000
0.134 2 8.767514 1.659043 6.077563 -4.402161 0.686646 -0.923157 50.00 50.00 4.9 3.9 0.317 0.247 50.0841 52.0104 0.1424 0.0005 0.010382 -1.306728 11.82 510 760 0.00 0.00 0.0000 0.0000
0.135 2 9.448393 -0.946997 -2.203267 0.358582 2.548218 0.686646 50.00 50.00 5.9 3.9 0.272 0.171 48.2953 52.0104 0.1438 0.0005 0.012977 -1.308196 11.82 490 730 0.00 0.00 0.0000 0.0000
0.136 2 9.486753 1.292231 2.126548 -3.189087 -4.608154 -4.890442 50.00 50.00 5.9 4.9 0.317 0.076 48.2953 50.0841 0.1452 0.0005 0.010382 -1.313499 11.82 490 730 0.00 0.00 0.0000 0.0000
0.137 2 10.340249 0.839111 4.962744 -1.213074 0.083923 -6.263733 50.00 50.00 5.9 5.9 0.437 0.025 48.2953 48.2953 0.1466 0.0005 0.012977 -1.312019 11.82 490 730 0.00 0.00 0.0000 0.0000
0.138 2 11.517402 -1.625479 2.337524 1.380920 7.263184 -0.679016 50.00 50.00 5.9 4.9 0.526 0.190 48.2953 50.0841 0.1480 0.0006 0.010382 -1.310667 11.82 490 730 0.00 0.00 0.0000 0.0000
0.139 2 10.858100 -0.273311 3.675308 -2.403259 9.918213 -4.447937 50.00 50.00 5.0 4.9 0.519 0.234 50.0841 50.0841 0.1497 0.0006 0.010382 -1.310455 11.77 510 740 0.00 0.00 0.0000 0.0000
0.140 2 9.453188 -2.867363 1.457656 3.120422 5.386353 -7.957458 50.00 50.00 5.0 4.9 0.437 0.222 50.0841 50.0841 0.1509 0.0006 0.010382 -1.310732 11.77 490 720 0.00 0.00 0.0000 0.0000
0.141 2 7.758183 -4.665459 0.750405 9.223938 3.929138 -1.998901 50.00 50.00 5.0 5.9 0.329 0.190 50.0841 48.2953 0.1523 0.0006 0.012977 -1.313332 11.77 490 730 0.00 0.00 0.0000 0.0000
0.142 2 7.475283 -1.270654 3.409189 1.296997 0.617981 -1.121521 50.00 50.00 5.0 4.9 0.253 0.241 50.0841 50.0841 0.1537 0.0006 0.010382 -1.313199 11.77 490 730 0.00 0.00 0.0000 0.0000
0.143 2 9.249404 -0.764790 3.246162 -4.104614 -4.524231 -3.349304 50.00 50.00 4.9 4.9 0.247 0.291 50.0841 50.0841 0.1551 0.0006 0.012977 -1.310756 11.77 490 730 0.00 0.00 0.0000 0.0000
0.144 2 10.910845 -3.023198 1.066870 3.562927 6.057739 1.106262 50.00 50.00 4.9 4.9 0.203 0.253 50.0841 50.0841 0.1565 0.0007 0.010382 -1.311585 11.80 510 750 0.00 0.00 0.0000 0.0000
0.145 2 10.517661 1.704595 3.447549 2.029419 10.177612 -1.052856 50.00 50.00 4.9 4.9 0.177 0.222 50.0841 50.0841 0.1579 0.0007 0.012977 -1.312476 11.80 490 730 0.00 0.00 0.0000 0.0000
0.146 2 10.215581 1.215513 5.264824 -0.457764 1.602173 -6.134033 50.00 50.00 4.9 4.9 0.215 0.184 50.0841 50.0841 0.1593 0.0007 0.010382 -1.309642 11.80 490 730 0.00 0.00 0.0000 0.0000
0.147 2 10.416967 -1.771724 0.453120 1.640320 3.929138 -0.038147 50.00 50.00 4.9 4.9 0.215 0.184 50.0841 50.0841 0.1607 0.0007 0.012977 -1.309623 11.80 490 730 0.00 0.00 0.0000 0.0000
0.148 2 9.589844 0.788765 0.697661 -3.623962 1.304626 2.670288 50.00 50.00 4.9 4.9 0.203 0.196 50.0841 50.0841 0.1621 0.0007 0.010382 -1.313600 11.80 490 730 0.00 0.00 0.0000 0.0000
0.149 2 9.050415 5.154541 6.890303 -7.904053 -3.463745 -4.386902 50.00 50.00 5.9 5.9 0.228 0.209 48.2953 48.2953 0.1635 0.0007 0.012977 -1.311550 11.79 510 750 0.00 0.00 0.0000 0.0000
0.150 2 10.323466 1.512798 2.968056 -2.540588 1.243591 -4.081726 50.00 50.00 5.9 5.0 0.279 0.234 48.2953 50.0841 0.1649 0.0008 0.010382 -1.307488 11.79 490 730 0.00 0.00 0.0000 0.0000
0.151 2 11.035512 -2.982441 -1.963520 1.914978 5.737305 0.183105 50.00 50.00 5.0 5.0 0.380 0.253 50.0841 50.0841 0.1663 0.0008 0.012977 -1.311613 11.79 490 730 0.00 0.00 0.0000 0.0000
0.152 2 9.980630 -0.846304 1.591914 -1.594543 4.570007 -5.714417 50.00 50.00 5.0 5.0 0.418 0.241 50.0841 50.0841 0.1678 0.0008 0.010382 -1.316834 11.79 490 730 0.00 0.00 0.0000 0.0000
0.153 2 8.791489 -2.368691 3.356445 -0.381470 -2.784729 -6.439209 50.00 50.00 5.0 5.9 0.405 0.222 50.0841 48.2953 0.1692 0.0008 0.012977 -1.316670 11.79 490 730 0.00 0.00 0.0000 0.0000
0.154 2 8.690796 -5.111387 3.294111 5.996704 0.419617 0.495911 50.00 50.00 5.9 8.4 0.361 0.260 48.2953 43.6216 0.1708 0.0008 0.012977 -1.314525 11.80 510 750 0.00 0.00 0.0000 0.0000
0.155 2 10.366621 -1.934751 2.980044 7.400513 7.644653 -2.311707 50.00 50.00 5.0 5.0 0.355 0.405 50.0841 50.0841 0.1720 0.0008 0.012977 -1.313171 11.80 490 720 0.00 0.00 0.0000 0.0000
0.156 2 11.069077 0.088706 2.646797 0.457764 6.645203 -8.232117 50.00 50.00 5.0 5.0 0.405 0.500 50.0841 50.0841 0.1734 0.0009 0.015573 -1.313054 11.80 490 730 0.00 0.00 0.0000 0.0000
0.157 2 9.556279 -2.658784 5.845010 6.111145 9.742737 -1.312256 50.00 50.00 5.0 5.0 0.418 0.380 50.0841 50.0841 0.1748 0.0009 0.012977 -1.310257 11.80 490 730 0.00 0.00 0.0000 0.0000
0.158 2 8.846631 -1.016523 3.044775 9.399414 11.497498 3.074646 50.00 50.00 5.0 5.0 0.399 0.304 50.0841 50.0841 0.1762 0.0009 0.015573 -1.306516 11.80 490 730 0.00 0.00 0.0000 0.0000
0.159 2 8.887387 0.731226 -1.500811 0.137329 -2.494812 -1.655579 50.00 50.00 4.9 4.9 0.329 0.215 50.0841 50.0841 0.1776 0.0009 0.012977 -1.310046 11.83 510 750 0.00 0.00 0.0000 0.0000
0.160 2 8.594897 3.401997 2.284780 -10.719299 -7.492065 -2.601624 50.00 50.00 4.9 4.9 0.393 0.196 50.0841 50.0841 0.1790 0.0009 0.015573 -1.314379 11.83 490 730 0.00 0.00 0.0000 0.0000
0.161 2 9.841577 0.839111 3.665718 -10.055542 -6.507874 3.669739 50.00 50.00 4.9 3.9 0.348 0.196 50.0841 52.0104 0.1806 0.0010 0.015573 -1.313475 11.83 490 730 0.00 0.00 0.0000 0.0000
0.162 2 10.836523 -0.855894 3.493100 -1.998901 -0.785828 3.631592 50.00 50.00 4.9 3.9 0.329 0.120 50.0841 52.0104 0.1818 0.0010 0.015573 -1.312016 11.83 490 730 0.00 0.00 0.0000 0.0000
0.163 2 11.018730 1.829263 4.044517 3.112793 10.108948 -6.706238 50.00 50.00 5.9 4.9 0.323 0.051 48.2953 50.0841 0.1834 0.0010 0.015573 -1.310489 11.83 490 720 0.00 0.00 0.0000 0.0000
0.164 2 11.047500 0.107886 2.030649 5.302429 7.667542 -9.460449 50.00 50.00 5.9 4.9 0.323 0.032 48.2953 50.0841 0.1847 0.0010 0.015573 -1.310207 11.75 510 750 0.00 0.00 0.0000 0.0000
0.165 2 9.923091 -3.270137 1.160371 1.342773 0.411987 -1.342773 50.00 50.00 5.9 4.9 0.380 0.127 48.2953 50.0841 0.1863 0.0011 0.015573 -1.312345 11.75 490 720 0.00 0.00 0.0000 0.0000
0.166 2 9.163095 -1.179551 4.655869 -1.815796 -0.854492 0.267029 50.00 50.00 5.0 4.9 0.443 0.146 50.0841 50.0841 0.1875 0.0011 0.015573 -1.311659 11.75 490 730 0.00 0.00 0.0000 0.0000
0.167 2 10.062143 1.853237 3.495498 -5.935669 -1.091003 -5.966187 50.00 50.00 5.0 4.9 0.418 0.165 50.0841 50.0841 0.1891 0.0011 0.015573 -1.308843 11.75 490 720 0.00 0.00 0.0000 0.0000
0.168 2 10.352236 -4.272275 0.239746 2.685547 4.676819 -4.890442 50.00 50.00 5.0 5.9 0.355 0.158 50.0841 48.2953 0.1903 0.0011 0.015573 -1.310459 11.75 480 720 0.00 0.00 0.0000 0.0000
0.169 2 8.868208 -4.207544 1.572734 11.970520 12.344360 -0.762939 50.00 50.00 5.0 4.9 0.348 0.253 50.0841 50.0841 0.1919 0.0011 0.015573 -1.313500 11.74 510 750 0.00 0.00 0.0000 0.0000
0.170 2 7.909224 -0.426748 3.646538 6.103516 1.525879 -2.243042 50.00 50.00 4.9 5.9 0.317 0.310 50.0841 48.2953 0.1933 0.0012 0.018168 -1.312460 11.74 490 740 0.00 0.00 0.0000 0.0000
0.171 2 8.671616 -0.182207 3.310894 -3.540039 -6.401062 -0.762939 50.00 50.00 4.9 4.9 0.298 0.310 50.0841 50.0841 0.1947 0.0012 0.015573 -1.309729 11.74 490 730 0.00 0.00 0.0000 0.0000
0.172 2 10.392993 -1.865225 0.462710 -3.334045 -2.120972 4.196167 50.00 50.00 4.9 4.9 0.279 0.310 50.0841 50.0841 0.1961 0.0012 0.018168 -1.310921 11.74 490 730 0.00 0.00 0.0000 0.0000
0.173 2 11.112231 0.364414 1.102832 -2.571106 0.541687 2.151489 50.00 50.00 4.9 4.9 0.298 0.228 50.0841 50.0841 0.1975 0.0012 0.015573 -1.314660 11.74 490 730 0.00 0.00 0.0000 0.0000
0.174 2 10.361826 1.591914 4.651074 0.595093 3.860474 -3.143311 50.00 50.00 4.9 4.9 0.304 0.222 50.0841 50.0841 0.1989 0.0013 0.018168 -1.314537 11.80 510 760 0.00 0.00 0.0000 0.0000
0.175 2 9.884731 0.234951 3.497895 6.797791 7.064819 -1.922607 50.00 50.00 4.9 4.9 0.342 0.184 50.0841 50.0841 0.2003 0.0013 0.015573 -1.311972 11.80 490 730 0.00 0.00 0.0000 0.0000
0.176 2 9.949463 0.913433 1.922764 3.395081 2.281189 -0.633240 50.00 50.00 4.9 5.9 0.336 0.196 50.0841 48.2953 0.2017 0.0013 0.018168 -1.311759 11.80 490 730 0.00 0.00 0.0000 0.0000
0.177 2 9.848769 1.999482 2.797837 -8.544922 -3.677368 -2.136230 50.00 50.00 5.9 4.9 0.336 0.241 48.2953 50.0841 0.2032 0.0013 0.015573 -1.312270 11.80 490 730 0.00 0.00 0.0000 0.0000
0.178 2 9.613818 -0.124668 3.713667 -2.853394 -3.471375 -1.174927 50.00 50.00 5.9 4.9 0.329 0.260 48.2953 50.0841 0.2046 0.0014 0.018168 -1.311061 11.80 490 730 0.00 0.00 0.0000 0.0000
0.179 2 10.479301 -0.203784 1.400117 -2.075195 0.205994 -2.540588 50.00 50.00 5.9 4.9 0.424 0.234 48.2953 50.0841 0.2060 0.0014 0.020764 -1.311268 11.77 510 750 0.00 0.00 0.0000 0.0000
0.180 2 10.671099 -3.339663 1.985098 2.433777 0.564575 -2.998352 50.00 50.00 5.0 4.9 0.443 0.215 50.0841 50.0841 0.2074 0.0014 0.018168 -1.313264 11.77 490 730 0.00 0.00 0.0000 0.0000
0.181 2 9.194263 -1.778916 3.150264 1.708984 7.324219 -3.532410 50.00 50.00 5.0 4.9 0.386 0.209 50.0841 50.0841 0.2088 0.0014 0.020764 -1.313206 11.77 490 730 0.00 0.00 0.0000 0.0000
0.182 2 8.359946 -3.224585 4.006157 1.068115 -2.037048 -0.488281 50.00 50.00 5.0 4.9 0.367 0.165 50.0841 50.0841 0.2102 0.0015 0.018168 -1.310568 11.77 490 730 0.00 0.00 0.0000 0.0000
0.183 2 8.815464 -3.109507 2.675566 6.919861 -2.647400 1.678467 50.00 50.00 5.0 4.9 0.374 0.228 50.0841 50.0841 0.2116 0.0015 0.020764 -1.308420 11.77 490 730 0.00 0.00 0.0000 0.0000
0.184 2 10.359428 -0.424351 -0.935010 -3.242493 1.686096 -1.884460 50.00 50.00 4.9 4.9 0.355 0.215 50.0841 50.0841 0.2130 0.0015 0.018168 -1.311597 11.80 510 750 0.00 0.00 0.0000 0.0000
0.185 2 10.263530 -2.728310 1.898789 -2.372742 -4.295349 -0.038147 50.00 50.00 4.9 4.9 0.336 0.190 50.0841 50.0841 0.2144 0.0016 0.020764 -1.315832 11.80 490 730 0.00 0.00 0.0000 0.0000
0.186 2 9.359687 0.268516 6.171064 2.830505 6.317139 3.028870 50.00 50.00 4.9 4.9 0.272 0.209 50.0841 50.0841 0.2158 0.0016 0.018168 -1.313281 11.80 490 720 0.00 0.00 0.0000 0.0000
0.187 2 9.899116 0.946997 3.749629 3.463745 4.730225 0.366211 50.00 50.00 4.9 4.9 0.209 0.177 50.0841 50.0841 0.2172 0.0016 0.020764 -1.308928 11.80 490 730 0.00 0.00 0.0000 0.0000
0.188 2 10.232363 0.338042 1.030908 3.768921 1.754761 -1.396179 50.00 50.00 4.9 4.9 0.241 0.228 50.0841 50.0841 0.2188 0.0016 0.020764 -1.309479 11.80 490 720 0.00 0.00 0.0000 0.0000
0.189 2 10.066938 2.932095 1.277847 -2.861023 2.037048 -0.511169 50.00 50.00 4.9 3.9 0.234 0.184 50.0841 52.0104 0.2200 0.0017 0.020764 -1.312376 11.82 510 750 0.00 0.00 0.0000 0.0000
0.190 2 9.961450 2.502949 4.236313 -10.681152 -7.812500 1.167297 50.00 50.00 5.9 4.9 0.196 0.146 48.2953 50.0841 0.2217 0.0017 0.020764 -1.312312 11.82 490 730 0.00 0.00 0.0000 0.0000
0.191 2 10.081323 -1.251475 2.356704 -2.693176 -2.922058 2.090454 50.00 50.00 5.9 4.9 0.266 0.076 48.2953 50.0841 0.2229 0.0017 0.020764 -1.311268 11.82 490 730 0.00 0.00 0.0000 0.0000
0.192 2 9.798423 1.160371 1.203525 0.427246 2.738953 -3.044128 50.00 50.00 6.8 4.9 0.367 0.146 46.6300 50.0841 0.2245 0.0018 0.020764 -1.312925 11.82 490 720 0.00 0.00 0.0000 0.0000
0.193 2 9.726499 -1.102832 4.123633 1.335144 -3.120422 -6.134033 50.00 50.00 5.0 4.9 0.475 0.152 50.0841 50.0841 0.2257 0.0018 0.020764 -1.312854 11.82 490 730 0.00 0.00 0.0000 0.0000
0.194 2 10.086118 -4.399341 2.119355 6.431580 2.830505 -0.816345 50.00 50.00 5.0 4.9 0.450 0.184 50.0841 50.0841 0.2273 0.0018 0.020764 -1.311944 11.79 510 750 0.00 0.00 0.0000 0.0000
0.195 2 9.810410 -2.972852 1.587119 2.304077 4.913330 1.029968 50.00 50.00 5.0 5.9 0.348 0.152 50.0841 48.2953 0.2285 0.0018 0.020764 -1.313364 11.79 490 730 0.00 0.00 0.0000 0.0000
0.196 2 9.069594 -1.567939 3.169443 -0.152588 -0.602722 -2.899170 50.00 50.00 5.0 4.9 0.304 0.222 50.0841 50.0841 0.2301 0.0019 0.020764 -1.313507 11.79 490 720 0.00 0.00 0.0000 0.0000
0.197 2 8.908964 -2.891338 1.349770 3.692627 1.754761 -1.358032 50.00 50.00 4.9 4.9 0.272 0.291 50.0841 50.0841 0.2313 0.0019 0.020764 -1.313775 11.79 490 730 0.00 0.00 0.0000 0.0000
0.198 2 9.129531 -2.462192 1.965918 3.379822 1.632690 2.716064 50.00 50.00 4.9 5.9 0.253 0.234 50.0841 48.2953 0.2329 0.0019 0.020764 -1.315246 11.79 490 730 0.00 0.00 0.0000 0.0000
0.199 2 9.551484 -0.038359 4.512022 -1.800537 -0.381470 1.693726 50.00 50.00 4.9 5.9 0.298 0.253 50.0841 48.2953 0.2341 0.0020 0.020764 -1.313826 11.77 510 750 0.00 0.00 0.0000 0.0000
0.200 2 10.203593 0.467505 3.919848 -0.549316 2.380371 1.098633 50.00 50.00 4.9 5.0 0.323 0.298 50.0841 50.0841 0.2357 0.0020 0.020764 -1.310897 11.77 490 720 0.00 0.00 0.0000 0.0000
0.201 2 10.457725 0.431543 1.893994 2.326965 3.387451 2.403259 50.00 50.00 4.9 5.0 0.355 0.304 50.0841 50.0841 0.2369 0.0020 0.020764 -1.310588 11.77 490 720 0.00 0.00 0.0000 0.0000
0.202 2 9.877539 2.244023 1.860430 -2.632141 -0.907898 0.450134 50.00 50.00 4.9 5.0 0.348 0.241 50.0841 50.0841 0.2385 0.0020 0.020764 -1.312102 11.77 490 720 0.00 0.00 0.0000 0.0000
0.203 2 9.151108 2.289575 4.171582 -5.538940 -4.898071 -0.434875 50.00 50.00 4.9 5.9 0.374 0.222 50.0841 48.2953 0.2400 0.0021 0.023359 -1.311197 11.77 490 730 0.00 0.00 0.0000 0.0000
0.204 2 9.558677 0.656904 3.147866 -2.044678 -3.402710 1.792908 50.00 50.00 6.8 5.0 0.329 0.260 46.6300 50.0841 0.2414 0.0021 0.020764 -1.309024 11.77 510 750 0.00 0.00 0.0000 0.0000
0.205 2 10.508071 0.342837 1.476836 -0.816345 -0.602722 -0.244141 50.00 50.00 5.0 5.0 0.336 0.260 50.0841 50.0841 0.2428 0.0021 0.023359 -1.309710 11.77 490 730 0.00 0.00 0.0000 0.0000
0.206 2 10.637534 -0.513057 0.908638 0.610352 1.144409 -4.310608 50.00 50.00 5.0 5.0 0.418 0.234 50.0841 50.0841 0.2442 0.0022 0.020764 -1.312649 11.77 490 730 0.00 0.00 0.0000 0.0000
0.207 2 9.875141 -1.368950 2.057021 1.243591 3.837585 -3.524780 50.00 50.00 5.0 5.0 0.336 0.234 50.0841 50.0841 0.2456 0.0022 0.023359 -1.314841 11.77 490 730 0.00 0.00 0.0000 0.0000
0.208 2 9.105556 -2.814619 3.509883 1.792908 3.433228 0.045776 50.00 50.00 5.0 4.9 0.329 0.215 50.0841 50.0841 0.2470 0.0022 0.025955 -1.314170 11.77 490 730 0.00 0.00 0.0000 0.0000
0.209 2 8.640449 -3.095122 2.716323 4.501343 1.724243 0.038147 50.00 50.00 4.9 4.9 0.291 0.171 50.0841 50.0841 0.2484 0.0023 0.023359 -1.312549 11.79 510 750 0.00 0.00 0.0000 0.0000
0.210 2 9.206249 -2.366294 1.126807 1.274109 0.129700 -1.564026 50.00 50.00 4.9 4.9 0.272 0.228 50.0841 50.0841 0.2498 0.0023 0.025955 -1.313425 11.79 490 730 0.00 0.00 0.0000 0.0000
0.211 2 9.808012 -3.624961 1.874814 2.502441 -0.480652 1.724243 50.00 50.00 4.9 4.9 0.253 0.209 50.0841 50.0841 0.2512 0.0023 0.023359 -1.315449 11.79 490 730 0.00 0.00 0.0000 0.0000
0.212 2 9.692934 -0.752803 3.934233 0.030518 2.830505 2.983093 50.00 50.00 4.9 4.9 0.215 0.196 50.0841 50.0841 0.2526 0.0024 0.025955 -1.314797 11.79 490 730 0.00 0.00 0.0000 0.0000
0.213 2 9.798423 -0.721636 4.468867 0.694275 0.816345 1.785278 50.00 50.00 4.9 4.9 0.190 0.184 50.0841 50.0841 0.2540 0.0024 0.023359 -1.311780 11.79 480 730 0.00 0.00 0.0000 0.0000
0.214 2 9.565868 -0.141450 1.786108 1.396179 -1.747131 2.662659 50.00 50.00 4.9 4.9 0.184 0.196 50.0841 50.0841 0.2554 0.0024 0.025955 -1.310853 11.80 510 750 0.00 0.00 0.0000 0.0000
0.215 2 9.831987 0.227759 1.498413 2.342224 0.389099 2.609253 50.00 50.00 4.9 4.9 0.203 0.222 50.0841 50.0841 0.2570 0.0025 0.025955 -1.312687 11.80 490 720 0.00 0.00 0.0000 0.0000
0.216 2 9.815205 4.840474 4.037324 -6.736755 -2.029419 -0.198364 50.00 50.00 4.9 4.9 0.222 0.184 50.0841 50.0841 0.2583 0.0025 0.025955 -1.312451 11.80 490 730 0.00 0.00 0.0000 0.0000
0.217 2 9.779243 0.961382 4.128428 -7.156372 -6.538391 1.174927 50.00 50.00 4.9 4.9 0.234 0.190 50.0841 50.0841 0.2599 0.0026 0.025955 -1.309822 11.80 490 730 0.00 0.00 0.0000 0.0000
0.218 2 10.313877 -0.685674 2.265600 4.905701 3.608704 1.686096 50.00 50.00 5.9 4.9 0.222 0.184 48.2953 50.0841 0.2611 0.0026 0.025955 -1.308919 11.80 490 730 0.00 0.00 0.0000 0.0000
0.219 2 11.018730 1.222705 -1.625479 1.052856 1.617432 -4.592896 50.00 50.00 5.9 4.9 0.285 0.215 48.2953 50.0841 0.2627 0.0026 0.025955 -1.313369 11.77 510 750 0.00 0.00 0.0000 0.0000
0.220 2 9.858359 -0.872676 2.059419 -1.098633 -1.518250 -4.974365 50.00 50.00 5.0 4.9 0.374 0.190 50.0841 50.0841 0.2639 0.0027 0.025955 -1.317877 11.77 490 720 0.00 0.00 0.0000 0.0000
0.221 2 8.419883 -0.239746 5.010693 -2.883911 5.638123 -0.762939 50.00 50.00 5.0 3.9 0.399 0.203 50.0841 52.0104 0.2655 0.0027 0.025955 -1.315495 11.77 490 730 0.00 0.00 0.0000 0.0000
0.222 2 8.575718 -3.267739 3.869502 0.953674 -3.746033 1.121521 50.00 50.00 5.0 4.9 0.342 0.120 50.0841 50.0841 0.2667 0.0027 0.025955 -1.311023 11.77 490 730 0.00 0.00 0.0000 0.0000
0.223 2 9.609023 -4.008554 0.489082 2.441406 -0.541687 -2.136230 50.00 50.00 5.0 4.9 0.291 0.101 50.0841 50.0841 0.2681 0.0028 0.028550 -1.311504 11.77 490 730 0.00 0.00 0.0000 0.0000
0.224 2 10.404980 -4.408930 -0.572993 7.446289 3.974915 -2.059937 50.00 50.00 4.9 4.9 0.304 0.165 50.0841 50.0841 0.2697 0.0028 0.028550 -1.316650 11.83 510 750 0.00 0.00 0.0000 0.0000
0.225 2 9.762461 -0.302080 4.485649 -0.648499 1.914978 -0.076294 50.00 50.00 4.9 5.9 0.272 0.177 50.0841 48.2953 0.2709 0.0029 0.028550 -1.317911 11.83 490 730 0.00 0.00 0.0000 0.0000
0.226 2 9.134326 -2.239228 5.578891 -2.052307 0.366211 3.326416 50.00 50.00 4.9 4.9 0.266 0.228 50.0841 50.0841 0.2725 0.0029 0.028550 -1.313206 11.83 490 730 0.00 0.00 0.0000 0.0000
0.227 2 8.674013 -0.222964 3.351650 2.098083 1.556396 2.265930 50.00 50.00 4.9 4.9 0.285 0.266 50.0841 50.0841 0.2737 0.0029 0.028550 -1.309211 11.83 490 730 0.00 0.00 0.0000 0.0000
0.228 2 9.580254 -0.258926 0.817534 1.533508 -3.364563 -1.144409 50.00 50.00 4.9 4.9 0.260 0.247 50.0841 50.0841 0.2753 0.0030 0.028550 -1.309913 11.83 490 720 0.00 0.00 0.0000 0.0000
0.229 2 10.117285 0.340439 1.297026 2.456665 -1.663208 0.076294 50.00 50.00 4.9 4.9 0.266 0.215 50.0841 50.0841 0.2766 0.0030 0.028550 -1.313017 11.80 510 750 0.00 0.00 0.0000 0.0000
0.230 2 10.028579 3.569819 4.092466 -4.737854 3.654480 0.663757 50.00 50.00 4.9 5.9 0.253 0.209 50.0841 48.2953 0.2782 0.0031 0.028550 -1.313005 11.80 490 720 0.00 0.00 0.0000 0.0000
0.231 2 9.846372 3.243765 5.499775 -6.042480 -1.953125 -0.396729 50.00 50.00 4.9 4.9 0.266 0.241 50.0841 50.0841 0.2794 0.0031 0.028550 -1.309216 11.80 490 730 0.00 0.00 0.0000 0.0000
0.232 2 9.939873 0.879868 1.577529 -1.525879 -0.114441 -1.647949 50.00 50.00 4.9 4.9 0.241 0.272 50.0841 50.0841 0.2810 0.0031 0.028550 -1.307811 11.80 490 720 0.00 0.00 0.0000 0.0000
0.233 2 10.263530 -1.337783 -0.445928 3.135681 2.136230 -3.128052 50.00 50.00 4.9 4.9 0.304 0.247 50.0841 50.0841 0.2822 0.0032 0.028550 -1.311873 11.80 490 730 0.00 0.00 0.0000 0.0000
0.234 2 9.906308 -0.390786 2.121753 -0.564575 -0.404358 -3.570557 50.00 50.00 4.9 5.9 0.355 0.190 50.0841 48.2953 0.2838 0.0032 0.028550 -1.315326 11.77 510 750 0.00 0.00 0.0000 0.0000
0.235 2 9.318931 -1.512798 3.651333 -2.265930 0.747681 -1.960754 50.00 50.00 4.9 5.9 0.336 0.247 50.0841 48.2953 0.2850 0.0033 0.028550 -1.314595 11.77 490 730 0.00 0.00 0.0000 0.0000
0.236 2 8.940131 -2.711528 3.071147 -0.534058 1.892090 -1.037598 50.00 50.00 4.9 5.0 0.323 0.291 50.0841 50.0841 0.2864 0.0033 0.031146 -1.312672 11.77 490 730 0.00 0.00 0.0000 0.0000
0.237 2 9.328520 -4.576753 0.707251 4.997253 0.053406 -1.541138 50.00 50.00 4.9 5.0 0.253 0.310 50.0841 50.0841 0.2880 0.0034 0.031146 -1.313741 11.77 490 720 0.00 0.00 0.0000 0.0000
0.238 2 9.457983 -3.066352 1.277847 4.821777 2.388000 -2.151489 50.00 50.00 4.9 5.0 0.234 0.260 50.0841 50.0841 0.2892 0.0034 0.031146 -1.316731 11.77 490 730 0.00 0.00 0.0000 0.0000
0.239 2 9.268583 -1.699800 4.404136 1.373291 2.876282 -0.602722 50.00 50.00 4.9 5.0 0.241 0.209 50.0841 50.0841 0.2908 0.0034 0.031146 -1.315995 11.83 510 750 0.00 0.00 0.0000 0.0000
0.240 2 9.644985 -1.117217 5.118579 -0.053406 3.837585 2.342224 50.00 50.00 4.9 4.9 0.209 0.228 50.0841 50.0841 0.2920 0.0035 0.031146 -1.311760 11.83 490 730 0.00 0.00 0.0000 0.0000
0.241 2 10.007002 -0.618545 1.618286 1.701355 4.257202 2.166748 50.00 50.00 4.9 4.9 0.228 0.203 50.0841 50.0841 0.2936 0.0035 0.031146 -1.310401 11.83 490 720 0.00 0.00 0.0000 0.0000
0.242 2 9.573061 1.409707 1.273052 -2.807617 0.793457 -1.731873 50.00 50.00 4.9 3.9 0.203 0.190 50.0841 52.0104 0.2949 0.0036 0.031146 -1.312617 11.83 490 730 0.00 0.00 0.0000 0.0000
0.243 2 9.405239 0.676084 3.507485 -1.571655 -1.434326 -0.404358 50.00 50.00 4.9 3.9 0.234 0.133 50.0841 52.0104 0.2963 0.0036 0.033741 -1.312892 11.83 480 730 0.00 0.00 0.0000 0.0000
0.244 2 9.498740 1.910776 2.975249 -1.472473 0.473022 1.861572 50.00 50.00 4.9 4.9 0.272 0.063 50.0841 50.0841 0.2979 0.0037 0.033741 -1.311468 11.85 510 750 0.00 0.00 0.0000 0.0000
0.245 2 9.788833 2.701938 3.241367 -8.270264 -0.831604 -2.273560 50.00 50.00 4.9 4.9 0.279 0.019 50.0841 50.0841 0.2991 0.0037 0.033741 -1.310434 11.85 490 720 0.00 0.00 0.0000 0.0000
0.246 2 10.241953 -0.112681 1.977905 -1.113892 -0.648499 -4.280090 50.00 50.00 5.9 4.9 0.241 0.114 48.2953 50.0841 0.3007 0.0038 0.033741 -1.310548 11.85 490 720 0.00 0.00 0.0000 0.0000
0.247 2 10.443339 -0.884663 -0.611353 0.244141 3.974915 -3.021240 50.00 50.00 5.9 4.9 0.260 0.165 48.2953 50.0841 0.3019 0.0038 0.033741 -1.314363 11.85 490 730 0.00 0.00 0.0000 0.0000
0.248 2 9.366879 -0.870278 3.413984 -3.807068 0.396729 -4.096985 50.00 50.00 6.8 3.8 0.393 0.184 46.6300 52.0104 0.3035 0.0039 0.033741 -1.316521 11.85 490 730 0.00 0.00 0.0000 0.0000
0.249 2 8.978491 -1.872417 4.550381 -0.907898 1.213074 -4.348755 50.00 50.00 5.0 4.8 0.564 0.089 50.0841 50.0841 0.3047 0.0039 0.033741 -1.313438 11.69 510 750 0.00 0.00 0.0000 0.0000
0.250 2 9.848769 -3.776001 0.937407 2.792358 4.135132 -2.037048 50.00 50.00 5.0 4.8 0.513 0.089 50.0841 50.0841 0.3061 0.0039 0.036337 -1.312904 11.69 490 730 0.00 0.00 0.0000 0.0000
0.251 2 9.959052 -3.354048 1.145986 2.296448 4.425049 -3.181458 50.00 50.00 5.0 4.8 0.412 0.171 50.0841 50.0841 0.3075 0.0040 0.033741 -1.315863 11.69 490 730 0.00 0.00 0.0000 0.0000
0.252 2 9.422021 -2.028252 2.898530 0.564575 4.364014 -4.646301 50.00 50.00 5.0 5.8 0.393 0.158 50.0841 48.2953 0.3089 0.0040 0.036337 -1.316746 11.69 490 730 0.00 0.00 0.0000 0.0000
0.253 2 8.827451 -2.217651 4.231518 0.640869 2.876282 -0.305176 50.00 50.00 4.9 4.9 0.380 0.196 50.0841 50.0841 0.3103 0.0041 0.033741 -1.314333 11.69 490 730 0.00 0.00 0.0000 0.0000
0.254 2 8.839438 -0.963779 4.667856 0.183105 3.143311 0.976562 50.00 50.00 4.9 4.9 0.399 0.253 50.0841 50.0841 0.3117 0.0041 0.036337 -1.310123 11.79 510 750 0.00 0.00 0.0000 0.0000
0.255 2 9.678550 -0.198989 2.517334 -0.167847 0.717163 -1.976013 50.00 50.00 4.9 5.8 0.374 0.247 50.0841 48.2953 0.3131 0.0042 0.033741 -1.307922 11.79 490 730 0.00 0.00 0.0000 0.0000
0.256 2 10.287504 -0.124668 1.155576 0.572205 1.022339 -1.319885 50.00 50.00 4.9 4.9 0.361 0.247 50.0841 50.0841 0.3146 0.0042 0.036337 -1.309485 11.79 490 730 0.00 0.00 0.0000 0.0000
0.257 2 9.985424 2.349512 2.850581 -2.914429 3.166199 -1.083374 50.00 50.00 6.8 4.9 0.317 0.253 46.6300 50.0841 0.3160 0.0043 0.033741 -1.310763 11.79 490 730 0.00 0.00 0.0000 0.0000
0.258 2 9.496343 3.042378 4.468867 -7.331848 -1.037598 -2.830505 50.00 50.00 5.0 4.9 0.450 0.241 50.0841 50.0841 0.3174 0.0043 0.036337 -1.308785 11.79 490 730 0.00 0.00 0.0000 0.0000
0.259 2 9.503535 0.565801 2.697144 -2.944946 0.350952 -2.189636 50.00 50.00 5.0 4.9 0.450 0.196 50.0841 50.0841 0.3188 0.0044 0.033741 -1.306887 11.77 510 750 0.00 0.00 0.0000 0.0000
0.260 2 9.820000 0.285298 0.354824 -1.892090 3.692627 -3.601074 50.00 50.00 5.0 4.9 0.367 0.215 50.0841 50.0841 0.3202 0.0044 0.036337 -1.308982 11.77 490 730 0.00 0.00 0.0000 0.0000
0.261 2 9.815205 -0.664097 1.671030 -2.059937 0.480652 -5.699158 50.00 50.00 5.0 4.9 0.323 0.203 50.0841 50.0841 0.3214 0.0045 0.036337 -1.312103 11.77 490 730 0.00 0.00 0.0000 0.0000
0.262 2 9.582651 -1.119614 2.888940 -0.770569 2.487183 -4.791260 50.00 50.00 4.9 4.9 0.310 0.190 50.0841 50.0841 0.3230 0.0045 0.036337 -1.312631 11.77 490 720 0.00 0.00 0.0000 0.0000
0.263 2 9.834385 -1.858032 3.032788 -3.746033 2.792358 -3.982544 50.00 50.00 4.9 5.9 0.323 0.171 50.0841 48.2953 0.3242 0.0046 0.036337 -1.311837 11.77 490 730 0.00 0.00 0.0000 0.0000
0.264 2 9.875141 -4.624702 2.428628 1.846313 0.976562 -2.487183 50.00 50.00 4.9 4.9 0.342 0.234 50.0841 50.0841 0.3258 0.0046 0.036337 -1.311583 11.79 510 750 0.00 0.00 0.0000 0.0000
0.265 2 9.486753 -2.363896 2.342319 4.890442 7.034302 -3.982544 50.00 50.00 4.9 4.9 0.329 0.266 50.0841 50.0841 0.3270 0.0047 0.036337 -1.311862 11.79 490 730 0.00 0.00 0.0000 0.0000
0.266 2 9.678550 -1.112422 3.612973 -1.220703 3.646851 -4.951477 50.00 50.00 4.9 4.9 0.418 0.253 50.0841 50.0841 0.3286 0.0047 0.036337 -1.310963 11.79 490 720 0.00 0.00 0.0000 0.0000
0.267 2 9.419623 -4.372969 2.220049 4.470825 3.715515 0.778198 50.00 50.00 4.9 4.9 0.355 0.209 50.0841 50.0841 0.3298 0.0048 0.036337 -1.310216 11.79 490 720 0.00 0.00 0.0000 0.0000
0.268 2 8.482217 1.033306 2.457397 -1.907349 6.523132 0.381470 50.00 50.00 4.9 4.9 0.317 0.203 50.0841 50.0841 0.3314 0.0048 0.036337 -1.310203 11.79 490 720 0.00 0.00 0.0000 0.0000
0.269 2 8.731552 1.548760 4.845268 -8.613586 -4.669189 -2.975464 50.00 50.00 4.9 4.9 0.266 0.196 50.0841 50.0841 0.3328 0.0049 0.038932 -1.307540 11.82 510 760 0.00 0.00 0.0000 0.0000
0.270 2 9.911103 -1.510400 1.572734 3.639221 2.807617 1.831055 50.00 50.00 4.9 4.9 0.279 0.177 50.0841 50.0841 0.3341 0.0049 0.038932 -1.306195 11.82 490 730 0.00 0.00 0.0000 0.0000
0.271 2 10.222774 3.423574 0.532236 -2.563477 9.124756 0.129700 50.00 50.00 4.9 5.9 0.355 0.203 50.0841 48.2953 0.3355 0.0050 0.036337 -1.309258 11.82 490 730 0.00 0.00 0.0000 0.0000
0.272 2 9.896718 3.831142 5.900151 -11.169434 -3.181458 -5.645752 50.00 50.00 4.9 4.9 0.336 0.228 50.0841 50.0841 0.3369 0.0051 0.038932 -1.308547 11.82 490 730 0.00 0.00 0.0000 0.0000
0.273 2 10.414570 -0.843906 2.073804 -2.990723 2.304077 -3.128052 50.00 50.00 4.9 6.8 0.367 0.247 50.0841 46.6300 0.3385 0.0051 0.038932 -1.306479 11.82 490 720 0.00 0.00 0.0000 0.0000
0.274 2 10.294697 -1.088447 -0.369209 -0.152588 7.293701 -0.144958 50.00 50.00 5.9 5.0 0.361 0.329 48.2953 50.0841 0.3397 0.0052 0.038932 -1.310039 11.79 510 750 0.00 0.00 0.0000 0.0000
0.275 2 9.311738 -0.026372 3.951015 -1.022339 1.358032 -6.614685 50.00 50.00 5.9 5.0 0.310 0.405 48.2953 50.0841 0.3413 0.0052 0.038932 -1.311509 11.79 490 730 0.00 0.00 0.0000 0.0000
0.276 2 9.419623 -0.707251 2.627617 2.815247 6.576538 -8.125305 50.00 50.00 5.9 5.0 0.405 0.285 48.2953 50.0841 0.3425 0.0053 0.038932 -1.309908 11.79 490 730 0.00 0.00 0.0000 0.0000
0.277 2 9.611421 -1.862827 1.889199 0.160217 7.652283 -2.456665 50.00 50.00 5.9 5.0 0.456 0.203 48.2953 50.0841 0.3441 0.0053 0.038932 -1.310336 11.79 490 730 0.00 0.00 0.0000 0.0000
0.278 2 9.342905 -3.337265 2.282383 -3.753662 2.365112 -2.532959 50.00 50.00 5.9 4.9 0.424 0.215 48.2953 50.0841 0.3453 0.0054 0.038932 -1.311113 11.79 490 730 0.00 0.00 0.0000 0.0000
0.279 2 9.568266 -3.584204 0.700059 1.449585 1.914978 -3.768921 50.00 50.00 5.9 4.9 0.443 0.190 48.2953 50.0841 0.3467 0.0054 0.041528 -1.313123 11.74 510 750 0.00 0.00 0.0000 0.0000
0.280 2 9.714512 -1.452861 3.176636 -0.549316 4.516602 -2.082825 50.00 50.00 5.9 4.9 0.443 0.209 48.2953 50.0841 0.3481 0.0055 0.038932 -1.314318 11.74 490 730 0.00 0.00 0.0000 0.0000
0.281 2 9.719306 -1.321001 6.518696 -1.609802 5.744934 -1.304626 50.00 50.00 5.0 4.9 0.469 0.152 50.0841 50.0841 0.3495 0.0056 0.041528 -1.310330 11.74 490 720 0.00 0.00 0.0000 0.0000
0.282 2 9.973437 -0.824727 4.394546 4.280090 11.436462 -0.625610 50.00 50.00 5.0 4.9 0.456 0.177 50.0841 50.0841 0.3509 0.0056 0.038932 -1.305380 11.74 490 730 0.00 0.00 0.0000 0.0000
0.283 2 9.769653 0.822329 1.217910 1.762390 11.543274 -1.068115 50.00 50.00 5.0 4.9 0.374 0.184 50.0841 50.0841 0.3523 0.0057 0.041528 -1.305100 11.74 490 730 0.00 0.00 0.0000 0.0000
0.284 2 8.853823 1.577529 1.126807 -1.976013 1.441956 -2.090454 50.00 50.00 5.0 4.9 0.342 0.209 50.0841 50.0841 0.3539 0.0057 0.041528 -1.307768 11.80 510 740 0.00 0.00 0.0000 0.0000
0.285 2 8.331177 2.747490 2.766670 -6.256104 -3.219604 -1.441956 50.00 50.00 4.9 4.9 0.323 0.196 50.0841 50.0841 0.3554 0.0058 0.038932 -1.308563 11.80 490 730 0.00 0.00 0.0000 0.0000
0.286 2 9.503535 2.088188 4.847666 -11.680603 -4.119873 -0.205994 50.00 50.00 3.9 4.9 0.291 0.203 52.0104 50.0841 0.3568 0.0058 0.041528 -1.305975 11.80 490 740 0.00 0.00 0.0000 0.0000
0.287 2 11.260874 -1.409707 2.469385 0.305176 3.067017 -0.442505 50.00 50.00 8.4 4.9 0.266 0.222 43.6216 50.0841 0.3582 0.0059 0.038932 -1.304421 11.80 490 730 0.00 0.00 0.0000 0.0000
0.288 2 11.507812 1.100435 0.023975 5.027771 15.426636 -6.584167 50.00 50.00 5.0 4.9 0.342 0.190 50.0841 50.0841 0.3596 0.0060 0.041528 -1.307378 11.80 490 720 0.00 0.00 0.0000 0.0000
0.289 2 10.069336 -0.196592 2.644399 1.457214 10.169983 -8.827209 50.00 50.00 5.0 4.9 0.475 0.215 50.0841 50.0841 0.3612 0.0060 0.041528 -1.309809 11.79 510 740 0.00 0.00 0.0000 0.0000
0.290 2 8.453447 -1.922764 2.160112 1.068115 5.958557 -3.135681 50.00 50.00 5.0 4.9 0.412 0.165 50.0841 50.0841 0.3624 0.0061 0.041528 -1.309818 11.79 490 720 0.00 0.00 0.0000 0.0000
0.291 2 7.947583 -2.215254 1.884404 -4.707336 1.335144 -0.267029 50.00 50.00 5.0 4.9 0.355 0.184 50.0841 50.0841 0.3638 0.0061 0.038932 -1.310141 11.79 490 730 0.00 0.00 0.0000 0.0000
0.292 2 8.908964 -2.831401 2.745093 -2.861023 -4.333496 -2.288818 50.00 50.00 4.9 4.9 0.304 0.222 50.0841 50.0841 0.3652 0.0062 0.041528 -1.310064 11.79 490 730 0.00 0.00 0.0000 0.0000
0.293 2 10.817344 -2.776260 1.527183 2.029419 3.219604 -3.616333 50.00 50.00 5.9 4.9 0.272 0.209 48.2953 50.0841 0.3668 0.0063 0.041528 -1.310888 11.79 490 730 0.00 0.00 0.0000 0.0000
0.294 2 11.678032 -3.593794 3.433164 7.186890 11.260986 -0.305176 50.00 50.00 5.0 4.9 0.310 0.209 50.0841 50.0841 0.3680 0.0063 0.041528 -1.311690 11.77 510 750 0.00 0.00 0.0000 0.0000
0.295 2 9.963847 1.268257 5.554917 6.240845 14.129639 -1.335144 50.00 50.00 5.0 5.9 0.348 0.177 50.0841 48.2953 0.3696 0.0064 0.041528 -1.308735 11.77 490 730 0.00 0.00 0.0000 0.0000
0.296 2 8.796284 1.277847 5.075425 -5.279541 3.044128 -4.188538 50.00 50.00 5.0 5.0 0.291 0.253 50.0841 50.0841 0.3708 0.0064 0.041528 -1.303559 11.77 490 730 0.00 0.00 0.0000 0.0000
0.297 2 9.019248 -3.169443 0.290093 4.539490 -4.325867 3.128052 50.00 50.00 5.0 5.0 0.285 0.291 50.0841 50.0841 0.3722 0.0065 0.044123 -1.303362 11.77 490 730 0.00 0.00 0.0000 0.0000
0.298 2 9.625805 3.246162 -0.949395 -0.488281 5.172729 1.663208 50.00 50.00 4.9 5.0 0.298 0.266 50.0841 50.0841 0.3736 0.0065 0.041528 -1.309305 11.77 490 730 0.00 0.00 0.0000 0.0000
0.299 2 9.326122 4.981924 5.602866 -11.627197 -2.517700 -5.355835 50.00 50.00 4.9 4.9 0.298 0.215 50.0841 50.0841 0.3753 0.0066 0.041528 -1.310078 11.83 510 750 0.00 0.00 0.0000 0.0000
0.300 2 9.587446 -0.069526 4.787729 2.861023 5.004883 -0.862122 50.00 50.00 4.9 4.9 0.317 0.196 50.0841 50.0841 0.3765 0.0067 0.041528 -1.305277 11.83 490 730 0.00 0.00 0.0000 0.0000
0.301 4 10.711855 1.344976 -1.929956 4.951477 14.411926 0.549316 49.16 49.16 5.5 4.5 0.304 0.234 48.2953 50.0841 0.3779 0.0067 0.044123 -1.307546 11.83 490 830 0.00 0.00 0.0000 0.0000
0.302 4 10.002207 -0.381196 0.501069 -3.738403 2.830505 -4.737854 48.32 48.32 4.0 4.0 0.310 0.171 50.0841 50.0841 0.3793 0.0068 0.041528 -1.313879 11.83 490 780 0.00 0.00 0.0000 0.0000
0.303 4 8.767514 0.395581 1.879609 2.922058 3.944397 -4.966736 47.48 47.48 3.6 3.5 0.291 0.070 50.0841 50.0841 0.3809 0.0068 0.041528 -1.316321 11.83 490 730 0.00 0.00 0.0000 0.0000
0.304 4 9.642588 -0.405171 3.370830 -10.070801 -2.029419 -2.815247 46.64 46.64 3.1 3.0 0.146 0.006 50.0841 50.0841 0.3823 0.0069 0.044123 -1.315923 11.93 510 750 0.00 0.00 0.0000 0.0000
0.305 4 10.862895 -7.806133 5.888164 3.150940 -2.479553 -0.129700 45.80 45.80 2.5 2.5 0.076 -0.025 50.0841 50.0841 0.3835 0.0070 0.044123 -1.312761 11.93 490 730 0.00 0.00 0.0000 0.0000
0.306 4 11.191347 -3.787988 0.354824 21.003723 25.405884 -2.449036 44.96 44.96 2.0 2.0 -0.032 -0.146 50.0841 50.0841 0.3851 0.0070 0.044123 -1.312441 11.93 490 730 0.00 0.00 0.0000 0.0000
0.307 4 9.558677 1.704595 3.392407 8.476257 15.327454 -8.186340 44.12 44.12 1.5 2.4 -0.108 -0.190 50.0841 48.2953 0.3863 0.0071 0.044123 -1.313514 11.93 490 730 0.00 0.00 0.0000 0.0000
0.308 4 7.844492 -1.757339 5.329556 -3.028870 -1.304626 -3.555298 43.28 43.28 0.9 1.9 -0.184 -0.272 50.0841 48.2953 0.3877 0.0071 0.041528 -1.309202 11.93 490 720 0.00 0.00 0.0000 0.0000
0.309 4 8.036289 -2.116958 0.819932 0.732422 -0.144958 7.217407 42.44 42.44 1.3 1.4 -0.481 -0.329 48.2953 48.2953 0.3891 0.0072 0.044123 -1.307480 12.01 510 750 0.00 0.00 0.0000 0.0000
0.310 4 9.110352 1.932353 1.186743 -12.222290 -10.520935 2.914429 41.60 41.60 0.8 0.8 -0.431 -0.317 48.2953 48.2953 0.3903 0.0073 0.044123 -1.310497 12.01 490 730 0.00 0.00 0.0000 0.0000
0.311 4 10.237158 -0.105488 5.274414 -4.638672 -8.033752 -4.005432 40.76 40.76 1.1 1.2 -0.500 -0.507 46.6300 46.6300 0.3915 0.0073 0.044123 -1.309819 12.01 490 730 0.00 0.00 0.0000 0.0000
0.312 4 11.733173 1.781313 5.281606 12.046814 13.732910 -1.327515 39.92 39.92 3.7 1.5 -0.494 -0.488 40.9779 45.0756 0.3929 0.0074 0.041528 -1.306039 12.01 490 740 0.00 0.00 0.0000 0.0000
0.313 4 12.138345 2.452602 2.553296 4.798889 10.681152 -2.128601 39.08 39.08 1.0 0.9 -0.355 -0.526 45.0756 45.0756 0.3943 0.0074 0.044123 -1.304830 12.01 490 730 0.00 0.00 0.0000 0.0000
0.314 4 9.918296 1.572734 2.421435 -3.730774 2.632141 -6.721497 38.24 38.24 0.8 0.8 -0.272 -0.500 45.0756 45.0756 0.3955 0.0075 0.044123 -1.305558 12.07 510 740 0.00 0.00 0.0000 0.0000
0.315 4 8.160956 -0.328452 0.572993 1.922607 1.144409 -2.372742 37.39 37.39 0.8 -0.8 -0.355 -0.519 43.6216 45.0756 0.3968 0.0075 0.044123 -1.307712 12.07 490 720 0.00 0.00 0.0000 0.0000
0.316 4 8.012314 -0.414761 -0.170220 1.754761 -3.288269 2.166748 36.55 36.55 0.8 0.8 -0.545 -0.747 42.2584 43.6216 0.3980 0.0076 0.044123 -1.312456 12.07 490 720 0.00 0.00 0.0000 0.0000
0.317 4 8.357549 1.742954 1.953931 -0.267029 -0.717163 -4.760742 35.71 35.71 2.2 0.8 -0.614 -0.716 38.6363 42.2584 0.3992 0.0076 0.044123 -1.315543 12.07 490 720 0.00 0.00 0.0000 0.0000
0.318 4 10.126875 -0.863086 1.659043 -4.669189 1.121521 -9.094238 34.87 34.87 0.8 0.8 -0.424 -0.646 40.9779 40.9779 0.4002 0.0077 0.046719 -1.316712 12.07 490 730 0.00 0.00 0.0000 0.0000
0.319 4 11.920176 -8.254457 1.174756 5.310059 2.006531 1.953125 34.03 34.03 0.8 0.8 -0.412 -0.716 39.7726 39.7726 0.4012 0.0077 0.044123 -1.319136 11.90 510 750 0.00 0.00 0.0000 0.0000
0.320 4 11.282451 -2.390269 2.867363 10.337830 17.005920 2.067566 33.19 33.19 0.8 0.8 -0.450 -0.576 39.7726 38.6363 0.4024 0.0078 0.044123 -1.320518 11.90 490 720 0.00 0.00 0.0000 0.0000
0.321 4 9.187070 1.309014 5.976870 -0.297546 10.513306 -7.865906 32.35 32.35 0.8 -0.8 -0.450 -0.570 38.6363 38.6363 0.4036 0.0078 0.044123 -1.317062 11.90 490 710 0.00 0.00 0.0000 0.0000
0.322 4 7.988339 -2.668374 5.883369 6.820679 3.532410 -2.159119 31.51 31.51 -0.8 -0.8 -0.570 -0.735 38.6363 37.5630 0.4044 0.0079 0.044123 -1.309969 11.90 490 730 0.00 0.00 0.0000 0.0000
0.323 4 8.992876 -1.534375 -0.755200 7.972717 6.301880 4.577637 30.67 30.67 0.8 -0.8 -0.627 -0.703 36.5478 36.5478 0.4056 0.0079 0.044123 -1.309593 11.90 490 720 0.00 0.00 0.0000 0.0000
0.324 4 9.767256 -0.151040 -1.009331 -6.538391 -10.353088 -0.785828 29.83 29.83 0.8 -0.8 -0.595 -0.741 35.5860 35.5860 0.4064 0.0080 0.044123 -1.316649 11.91 510 750 0.00 0.00 0.0000 0.0000
0.325 4 9.537099 1.196333 5.967280 -7.949829 -9.834290 -1.693726 28.99 28.99 0.0 -0.8 -0.665 -0.855 34.6736 34.6736 0.4076 0.0080 0.044123 -1.317340 11.91 490 720 0.00 0.00 0.0000 0.0000
0.326 4 10.659111 1.054883 6.533081 2.639771 3.761292 2.937317 28.15 28.15 -0.8 0.8 -0.646 -0.855 34.6736 32.9822 0.4084 0.0081 0.044123 -1.311432 11.91 490 730 0.00 0.00 0.0000 0.0000
0.327 4 11.373554 1.282642 4.862051 10.498047 7.637024 -1.899719 27.31 27.31 -0.8 0.8 -0.608 -0.678 33.8067 32.1969 0.4092 0.0081 0.044123 -1.307025 11.91 490 720 0.00 0.00 0.0000 0.0000
0.328 4 11.023525 1.332988 -1.575132 8.392334 11.138916 -10.063171 26.47 26.47 -0.8 -0.8 -0.703 -0.602 32.1969 32.1969 0.4102 0.0081 0.041528 -1.309492 11.91 490 730 0.00 0.00 0.0000 0.0000
0.329 4 8.657231 0.362017 0.201387 -0.503540 2.517700 -4.768372 25.63 25.63 -0.8 -0.8 -0.804 -0.633 31.4481 31.4481 0.4110 0.0082 0.041528 -1.315723 11.93 510 740 0.00 0.00 0.0000 0.0000
0.330 4 7.336230 1.241885 6.168667 -2.281189 -5.203247 2.388000 24.79 24.79 -0.8 -0.8 -0.697 -0.608 30.7334 30.7334 0.4118 0.0082 0.041528 -1.313644 11.93 490 730 0.00 0.00 0.0000 0.0000
0.331 4 9.395649 1.301821 0.026372 -7.797241 -4.554749 -1.892090 23.95 23.95 -0.8 0.8 -0.633 -0.589 28.7717 28.1723 0.4126 0.0082 0.041528 -1.311870 11.93 490 710 0.00 0.00 0.0000 0.0000
0.332 4 10.424160 -2.610835 -0.038359 -4.989624 -2.983093 -5.790710 23.11 23.11 0.0 -0.8 -0.690 -0.583 27.5973 27.5973 0.4134 0.0083 0.041528 -1.317071 11.93 490 710 0.00 0.00 0.0000 0.0000
0.333 4 10.656713 -3.047173 4.797319 7.385254 10.780334 -4.859924 22.27 22.27 -0.8 0.8 -0.690 -0.659 27.0454 26.5151 0.4142 0.0083 0.041528 -1.317876 11.93 490 720 0.00 0.00 0.0000 0.0000
0.334 4 10.934819 -4.070889 2.872158 13.282776 10.635376 -2.525330 21.43 21.43 -0.8 0.8 -0.665 -0.469 26.0052 25.5145 0.4150 0.0083 0.041528 -1.315968 11.90 510 740 0.00 0.00 0.0000 0.0000
0.335 4 9.719306 -1.726172 1.826865 5.195618 6.263733 -3.433228 20.59 20.59 -0.8 -0.8 -0.538 -0.431 25.0420 25.0420 0.4158 0.0084 0.041528 -1.316486 11.90 490 720 0.00 0.00 0.0000 0.0000
0.336 4 8.374331 0.558608 2.948877 -5.973816 0.465393 -4.867554 19.75 19.75 -0.0 -0.8 -0.589 -0.507 23.7240 24.1477 0.4164 0.0084 0.044123 -1.316271 11.90 490 730 0.00 0.00 0.0000 0.0000
0.337 4 8.204111 -2.826606 3.816758 -1.976013 -8.529663 0.602722 18.91 18.91 -0.8 -0.8 -0.614 -0.551 24.1477 23.3150 0.4171 0.0084 0.041528 -1.313718 11.90 490 730 0.00 0.00 0.0000 0.0000
0.338 4 9.244609 -2.613232 2.469385 2.983093 -3.448486 3.051758 18.07 18.07 -0.8 -0.8 -0.665 -0.614 22.1684 21.8108 0.4179 0.0085 0.041528 -1.312016 11.90 490 720 0.00 0.00 0.0000 0.0000
0.339 4 10.997153 0.275708 1.706992 4.394531 -0.518799 -3.334045 17.23 17.23 -0.8 -0.8 -0.500 -0.538 21.8108 21.8108 0.4183 0.0085 0.041528 -1.313066 11.90 510 750 0.00 0.00 0.0000 0.0000
0.340 4 11.896201 2.143330 2.944082 -0.282288 3.143311 -7.034302 16.39 16.39 -0.9 -1.1 -0.488 -0.481 21.4646 21.8108 0.4191 0.0085 0.041528 -1.314220 11.90 490 720 0.00 0.00 0.0000 0.0000
0.341 4 10.642329 -0.836714 4.003760 -1.617432 6.118774 -0.923157 15.55 15.55 -1.1 -0.8 -0.494 -0.519 20.8041 19.5981 0.4195 0.0085 0.041528 -1.313256 11.90 490 740 0.00 0.00 0.0000 0.0000
0.342 4 8.213701 -0.244541 4.924385 3.868103 3.524780 1.289368 14.71 14.71 -1.1 -0.8 -0.583 -0.551 19.8863 19.3181 0.4203 0.0086 0.041528 -1.309362 11.90 490 750 0.00 0.00 0.0000 0.0000
0.343 4 8.240073 1.450464 1.512798 5.149841 -2.273560 -4.791260 13.87 13.87 -1.3 -1.3 -0.551 -0.576 19.3181 19.3181 0.4207 0.0086 0.041528 -1.307383 11.90 490 750 0.00 0.00 0.0000 0.0000
0.344 4 9.858359 1.006934 -0.261323 0.099182 -4.051208 -6.599426 13.03 13.03 -1.4 -1.6 -0.507 -0.456 18.5242 18.7815 0.4215 0.0086 0.041528 -1.311118 11.87 510 780 0.00 0.00 0.0000 0.0000
0.345 4 10.558417 -0.448325 2.263203 -4.890442 -1.022339 -2.502441 12.18 12.18 -1.7 -1.5 -0.412 -0.507 18.0303 17.5619 0.4219 0.0086 0.041528 -1.314476 11.87 490 750 0.00 0.00 0.0000 0.0000
0.346 4 10.297094 -0.055142 5.914536 -2.525330 1.342773 -0.976562 11.34 11.34 -1.9 -2.0 -0.507 -0.570 17.3368 17.5619 0.4223 0.0086 0.041528 -1.312296 11.87 490 750 0.00 0.00 0.0000 0.0000
0.347 4 10.265927 -1.083652 2.862568 4.104614 4.211426 -4.203796 10.50 10.50 -2.1 -2.1 -0.595 -0.659 16.6947 16.6947 0.4227 0.0087 0.041528 -1.309512 11.87 490 750 0.00 0.00 0.0000 0.0000
0.348 4 10.047758 -2.279985 -1.059678 7.682800 5.249023 -6.164551 9.66 9.66 -2.3 -2.3 -0.741 -0.773 16.0984 16.0984 0.4231 0.0087 0.041528 -1.312952 11.87 490 750 0.00 0.00 0.0000 0.0000
0.349 4 8.932940 -0.309272 2.757080 0.602722 1.762390 -4.402161 8.82 8.82 -2.5 -2.4 -0.798 -0.842 15.3667 15.1940 0.4235 0.0087 0.041528 -1.316074 11.82 510 770 0.00 0.00 0.0000 0.0000
0.350 4 8.604487 -1.074062 4.756562 -5.043030 -3.784180 0.152588 7.98 7.98 -2.6 -2.6 -0.830 -0.887 14.5405 14.5405 0.4239 0.0087 0.041528 -1.313171 11.82 490 750 0.00 0.00 0.0000 0.0000
0.351 4 9.285366 -2.037842 1.632671 -2.723694 -2.540588 1.693726 7.14 7.14 -1.9 -1.3 -0.874 -0.887 12.2934 11.0842 0.4243 0.0087 0.041528 -1.311604 11.82 490 750 0.00 0.00 0.0000 0.0000
0.352 4 9.899116 -1.246680 0.750405 0.205994 0.244141 -2.700806 6.30 6.30 -2.0 -1.9 -0.728 -0.716 11.3636 11.2689 0.4247 0.0087 0.041528 -1.314284 11.82 490 750 0.00 0.00 0.0000 0.0000
0.353 4 10.141259 -1.400117 3.044775 4.058838 0.915527 -4.096985 5.46 5.46 -2.2 -2.1 -0.640 -0.627 10.8182 10.7323 0.4251 0.0088 0.041528 -1.315716 11.82 490 740 0.00 0.00 0.0000 0.0000
0.354 4 10.323466 -1.275449 4.257891 5.104065 6.278992 -0.083923 4.62 4.62 -2.8 -2.5 -0.640 -0.646 10.8182 10.4021 0.4251 0.0088 0.041528 -1.313944 11.79 510 760 0.00 0.00 0.0000 0.0000
0.355 4 10.023784 0.613750 3.526665 1.419067 6.179810 -0.099182 3.78 3.78 -2.8 -2.6 -0.709 -0.735 9.8706 9.6591 0.4255 0.0088 0.041528 -1.311700 11.79 490 750 0.00 0.00 0.0000 0.0000
0.356 4 9.417226 0.923022 1.551157 -2.479553 -0.595093 -4.035950 2.94 2.94 -2.7 -2.6 -0.830 -0.779 8.6684 8.6132 0.4257 0.0088 0.038932 -1.311816 11.79 490 750 0.00 0.00 0.0000 0.0000
0.357 4 9.012055 -1.388130 0.863086 0.457764 -3.128052 -1.831055 2.10 2.10 -3.2 -2.5 -0.893 -0.842 8.6684 7.3895 0.4259 0.0088 0.041528 -1.314415 11.79 490 750 0.00 0.00 0.0000 0.0000
0.358 4 9.177480 0.736021 3.306098 0.205994 -1.075745 -0.190735 1.26 1.26 -2.3 -3.0 -0.938 -0.842 6.5644 7.3895 0.4261 0.0088 0.038932 -1.315159 11.79 490 790 0.00 0.00 0.0000 0.0000
0.359 4 9.923091 1.297026 4.957949 -3.013611 -2.174377 -3.341675 0.42 0.42 -2.7 -2.3 -0.995 -0.868 6.5644 5.6580 0.4263 0.0088 0.041528 -1.312238 11.74 510 850 0.00 0.00 0.0000 0.0000
0.360 4 10.457725 -0.836714 3.217392 0.724792 1.792908 -3.494263 0.00 0.00 -2.8 -2.5 -0.880 -0.855 6.1467 5.6580 0.4263 0.0088 0.041528 -1.309819 11.74 490 810 0.00 0.00 0.0000 0.0000
0.361 4 10.481699 -1.469643 2.301562 4.646301 5.676270 -1.930237 0.00 0.00 -1.7 -2.5 -0.804 -0.811 4.2258 5.6580 0.4263 0.0088 0.041528 -1.309827 11.74 490 810 0.00 0.00 0.0000 0.0000
0.362 4 10.148452 -0.246938 2.294370 4.142761 3.646851 -3.051758 0.00 0.00 -1.5 -1.6 -0.690 -0.773 3.7985 4.0366 0.4265 0.0088 0.038932 -1.310572 11.74 490 820 0.00 0.00 0.0000 0.0000
0.363 4 9.213442 0.047949 1.325796 -2.990723 0.671387 -3.890991 0.00 0.00 -1.6 -1.1 -0.538 -0.722 3.7985 3.1087 0.4265 0.0088 0.038932 -1.312071 11.74 490 810 0.00 0.00 0.0000 0.0000
0.364 4 8.427075 -1.922764 2.299165 -3.990173 -5.363464 -0.953674 0.00 0.00 -1.7 -0.8 -0.424 -0.551 3.7985 2.5182 0.4265 0.0088 0.038932 -1.313183 11.90 510 840 0.00 0.00 0.0000 0.0000
0.365 4 9.012055 -2.562886 2.380679 2.098083 -3.128052 1.541138 0.00 0.00 -1.7 -0.8 -0.342 -0.361 3.7150 2.1296 0.4265 0.0088 0.038932 -1.313164 11.90 490 810 0.00 0.00 0.0000 0.0000
0.366 4 10.002207 -0.939805 1.695005 2.250671 2.372742 -1.960754 0.00 0.00 -1.2 -0.8 -0.304 -0.190 2.9144 1.8398 0.4265 0.0088 0.038932 -1.314052 11.90 490 810 0.00 0.00 0.0000 0.0000
0.367 4 10.321069 -0.721636 4.171582 4.447937 3.768921 -3.829956 0.00 0.00 -1.0 -0.8 -0.253 -0.108 2.3976 1.6195 0.4265 0.0088 0.038932 -1.313618 11.90 490 810 0.00 0.00 0.0000 0.0000
0.368 4 10.697471 -0.417158 2.598848 4.699707 6.721497 -1.350403 0.00 0.00 -0.8 -0.8 -0.152 -0.057 2.0366 1.4463 0.4265 0.0088 0.038932 -1.312458 11.90 490 810 0.00 0.00 0.0000 0.0000
0.369 4 10.321069 -1.383335 1.057280 -0.724792 3.448486 0.473022 0.00 0.00 -0.8 -0.8 -0.070 -0.032 1.7654 1.3040 0.4265 0.0088 0.038932 -1.314115 11.87 510 840 0.00 0.00 0.0000 0.0000
0.370 4 8.887387 0.294888 3.493100 -2.365112 0.663757 -0.663757 0.00 0.00 -0.8 -0.8 0.000 -0.051 1.5651 1.1914 0.4265 0.0088 0.038932 -1.314444 11.87 490 810 0.00 0.00 0.0000 0.0000
0.371 4 8.688398 0.956587 3.893476 0.755310 -0.312805 -1.060486 0.00 0.00 -0.8 -0.8 0.051 -0.006 1.4028 1.0950 0.4265 0.0088 0.038932 -1.311638 11.87 490 820 0.00 0.00 0.0000 0.0000
0.372 4 9.616216 -0.011987 2.371089 1.907349 -0.511169 -0.549316 0.00 0.00 -0.8 -0.8 0.038 -0.038 1.2709 1.0129 0.4265 0.0088 0.038932 -1.310212 11.87 490 820 0.00 0.00 0.0000 0.0000
0.373 4 10.342647 -0.644917 1.366553 -0.717163 2.120972 -1.472473 0.00 0.00 -0.8 0.8 0.013 -0.032 1.1617 0.9423 0.4265 0.0088 0.038932 -1.311664 11.87 490 810 0.00 0.00 0.0000 0.0000
0.374 4 10.179619 0.340439 3.713667 -0.679016 2.372742 -1.388550 0.00 0.00 0.9 0.0 0.051 -0.006 -1.1012 0.8798 0.4263 0.0088 0.041528 -1.311992 11.90 510 840 0.00 0.00 0.0000 0.0000
0.375 4 9.805614 -0.232554 3.761616 0.694275 2.021790 -0.595093 0.00 0.00 0.8 -0.8 0.127 0.013 -1.1012 0.8271 0.4263 0.0088 0.041528 -1.309989 11.90 490 810 0.00 0.00 0.0000 0.0000
0.376 4 9.527510 -1.217910 1.680620 2.517700 2.754211 -1.213074 0.00 0.00 0.8 -0.8 0.095 -0.025 -1.1012 0.7794 0.4263 0.0088 0.041528 -1.309757 11.90 490 810 0.00 0.00 0.0000 0.0000
0.377 4 9.412432 -0.628135 1.685415 0.617981 2.395630 -2.792358 0.00 0.00 0.8 0.8 0.063 -0.038 -1.1012 0.7369 0.4263 0.0088 0.041528 -1.311398 11.90 490 810 0.00 0.00 0.0000 0.0000
0.378 4 9.333315 -1.193936 3.198213 0.740051 1.029968 -0.991821 0.00 0.00 0.8 0.8 0.070 -0.013 -1.1012 0.6988 0.4263 0.0088 0.041528 -1.311482 11.90 490 810 0.00 0.00 0.0000 0.0000
0.379 4 9.453188 -0.714443 3.107109 0.999451 3.356934 0.389099 0.00 0.00 0.8 -0.8 0.070 -0.013 -1.1012 0.6639 0.4263 0.0088 0.041528 -1.310166 11.93 510 840 0.00 0.00 0.0000 0.0000
0.380 4 9.774448 -1.086050 2.092983 0.900269 2.952576 -1.228333 0.00 0.00 0.8 -0.8 0.044 -0.025 -1.1012 0.6334 0.4263 0.0088 0.041528 -1.310040 11.93 490 810 0.00 0.00 0.0000 0.0000
0.381 4 9.906308 -1.332988 1.810083 2.067566 3.028870 -1.739502 0.00 0.00 0.8 -0.8 0.019 -0.038 -1.1012 0.6050 0.4263 0.0088 0.041528 -1.311274 11.93 490 810 0.00 0.00 0.0000 0.0000
0.382 4 9.762461 -1.090845 2.582065 1.968384 4.272461 -0.175476 0.00 0.00 0.8 0.8 0.019 -0.006 -1.1012 0.5791 0.4263 0.0088 0.041528 -1.312000 11.93 490 810 0.00 0.00 0.0000 0.0000
0.383 4 9.443599 -0.294888 3.636948 0.885010 2.059937 0.175476 0.00 0.00 0.8 0.8 0.038 0.013 -1.1012 0.5553 0.4263 0.0088 0.041528 -1.310870 11.93 490 810 0.00 0.00 0.0000 0.0000
0.384 4 9.438804 -0.326055 2.653989 -0.068665 1.113892 -0.434875 0.00 0.00 0.8 -0.8 0.044 -0.006 -1.1012 0.5330 0.4263 0.0088 0.041528 -1.309636 11.91 510 840 0.00 0.00 0.0000 0.0000
0.385 4 9.594639 -0.618545 2.052227 1.121521 1.670837 -0.526428 0.00 0.00 0.8 -0.8 0.038 -0.025 -1.1012 0.5132 0.4263 0.0088 0.041528 -1.309983 11.91 490 810 0.00 0.00 0.0000 0.0000
0.386 4 9.769653 -0.309272 2.675566 2.052307 1.976013 -0.694275 0.00 0.00 0.8 0.8 0.019 -0.019 -1.0941 0.4944 0.4263 0.0088 0.041528 -1.310383 11.91 490 810 0.00 0.00 0.0000 0.0000
0.387 4 9.983027 -0.122271 2.737900 1.525879 2.128601 -0.900269 0.00 0.00 0.8 0.0 0.038 0.019 -1.0122 0.4770 0.4263 0.0088 0.041528 -1.310207 11.91 490 810 0.00 0.00 0.0000 0.0000
0.388 4 9.951860 -0.028770 2.665977 0.625610 2.784729 -1.060486 0.00 0.00 0.8 -0.8 0.032 -0.013 -0.9417 0.4607 0.4263 0.0088 0.041528 -1.310083 11.91 490 810 0.00 0.00 0.0000 0.0000
0.389 4 9.784038 -0.364414 2.704336 1.167297 2.777100 -1.075745 0.00 0.00 -0.0 -0.0 0.051 -0.038 -0.8792 0.4453 0.4263 0.0088 0.041528 -1.309936 11.90 510 840 0.00 0.00 0.0000 0.0000
0.390 4 9.606626 -0.541826 2.589258 2.143860 2.738953 -1.075745 0.00 0.00 0.0 0.8 0.032 -0.044 -0.8266 0.4313 0.4263 0.0088 0.041528 -1.309777 11.90 490 810 0.00 0.00 0.0000 0.0000
0.391 4 9.642588 -0.659302 2.344717 2.044678 2.716064 -1.327515 0.00 0.00 0.8 -0.8 0.038 -0.032 -0.7790 0.4180 0.4263 0.0088 0.041528 -1.309930 11.90 490 810 0.00 0.00 0.0000 0.0000
0.392 4 9.668960 -0.635327 2.363896 0.961304 2.098083 -1.396179 0.00 0.00 0.8 -0.8 0.032 -0.063 -0.7365 0.4055 0.4263 0.0088 0.041528 -1.310318 11.90 490 810 0.00 0.00 0.0000 0.0000
0.393 4 9.647383 -0.798354 2.634809 0.205994 1.678467 -0.755310 0.00 0.00 -0.0 0.8 0.019 -0.057 -0.6985 0.3937 0.4263 0.0088 0.041528 -1.310430 11.90 490 810 0.00 0.00 0.0000 0.0000
0.394 4 9.635395 -0.980561 2.699541 0.915527 2.021790 -0.480652 0.00 0.00 -0.0 0.8 0.038 -0.025 -0.6635 0.3823 0.4263 0.0088 0.041528 -1.310209 11.90 510 830 0.00 0.00 0.0000 0.0000
0.395 4 9.788833 -1.100435 2.289575 1.808167 2.380371 -0.839233 0.00 0.00 0.8 -0.8 0.019 -0.025 -0.6331 0.3720 0.4263 0.0088 0.041528 -1.310352 11.90 490 810 0.00 0.00 0.0000 0.0000
0.396 4 9.700127 -1.035703 2.133740 1.953125 2.418518 -0.991821 0.00 0.00 0.8 -0.8 0.025 -0.038 -0.6048 0.3621 0.4263 0.0088 0.041528 -1.311049 11.90 490 810 0.00 0.00 0.0000 0.0000
0.397 4 9.587446 -0.731226 2.809824 1.197815 2.319336 -0.640869 0.00 0.00 -0.8 0.8 0.025 -0.051 -0.5789 0.3526 0.4263 0.0088 0.041528 -1.311185 11.90 490 810 0.00 0.00 0.0000 0.0000
0.398 4 9.616216 -0.630532 2.948877 0.892639 2.082825 -0.259399 0.00 0.00 0.8 0.8 0.006 -0.006 -0.5551 0.3437 0.4263 0.0088 0.041528 -1.310519 11.90 490 810 0.00 0.00 0.0000 0.0000
0.399 4 9.767256 -0.577788 2.498154 1.174927 2.136230 -0.450134 0.00 0.00 0.8 -0.8 0.025 0.013 -0.5328 0.3350 0.4263 0.0088 0.041528 -1.310211 11.90 510 840 0.00 0.00 0.0000 0.0000
0.400 4 9.776845 -0.481890 2.397461 1.396179 2.456665 -1.174927 0.00 0.00 0.8 -0.8 0.032 -0.013 -0.5130 0.3270 0.4263 0.0088 0.041528 -1.310471 11.90 490 810 0.00 0.00 0.0000 0.0000
0.401 4 9.716908 -0.405171 2.891338 1.464844 2.510071 -1.419067 0.00 0.00 -0.8 0.8 0.032 -0.032 -0.4943 0.3193 0.4263 0.0088 0.041528 -1.310339 11.90 490 810 0.00 0.00 0.0000 0.0000
0.402 4 9.743281 -0.318862 3.056763 1.327515 2.624512 -1.014709 0.00 0.00 0.0 0.0 0.013 -0.025 -0.4768 0.3119 0.4263 0.0088 0.041528 -1.309579 11.90 490 810 0.00 0.00 0.0000 0.0000
0.403 4 9.772051 -0.369209 2.632412 0.984192 2.510071 -1.190186 0.00 0.00 0.8 -0.8 0.057 -0.025 -0.4606 0.3049 0.4263 0.0088 0.041528 -1.309092 11.90 490 810 0.00 0.00 0.0000 0.0000
0.404 4 9.666562 -0.580186 2.313550 0.923157 1.991272 -1.861572 0.00 0.00 0.8 -0.0 0.057 -0.051 -0.4451 0.2981 0.4263 0.0088 0.041528 -1.309304 11.91 510 840 0.00 0.00 0.0000 0.0000
0.405 4 9.527510 -0.659302 2.589258 1.098633 1.609802 -1.770020 0.00 0.00 0.8 0.8 0.051 -0.019 -0.4312 0.2918 0.4263 0.0088 0.041528 -1.309497 11.91 490 810 0.00 0.00 0.0000 0.0000
0.406 4 9.541894 -0.745610 2.838594 1.213074 1.571655 -1.426697 0.00 0.00 -0.8 -0.8 0.063 -0.032 -0.4179 0.2856 0.4263 0.0088 0.041528 -1.309154 11.91 490 810 0.00 0.00 0.0000 0.0000
0.407 4 9.728896 -0.762393 2.574873 1.350403 1.831055 -1.655579 0.00 0.00 0.8 -0.8 -0.019 -0.070 -0.4054 0.2797 0.4263 0.0088 0.041528 -1.308881 11.91 490 810 0.00 0.00 0.0000 0.0000
0.408 4 9.848769 -0.863086 2.349512 1.342773 2.273560 -1.907349 0.00 0.00 0.8 0.8 0.051 -0.082 -0.3936 0.2740 0.4263 0.0088 0.041528 -1.309151 11.91 490 810 0.00 0.00 0.0000 0.0000
0.409 4 9.714512 -0.987754 2.421435 1.380920 2.525330 -1.724243 0.00 0.00 0.0 0.8 0.038 -0.006 -0.3822 0.2685 0.4263 0.0088 0.041528 -1.309554 11.94 510 840 0.00 0.00 0.0000 0.0000
0.410 4 9.644985 -0.935010 2.685156 1.235962 2.655029 -1.617432 0.00 0.00 -0.0 -0.8 0.051 -0.006 -0.3719 0.2633 0.4263 0.0088 0.041528 -1.309575 11.94 490 810 0.00 0.00 0.0000 0.0000
0.411 4 9.676152 -0.827124 2.541308 1.426697 2.738953 -1.564026 0.00 0.00 0.8 -0.8 0.025 -0.032 -0.3620 0.2583 0.4263 0.0088 0.041528 -1.309470 11.94 490 810 0.00 0.00 0.0000 0.0000
0.412 4 9.673755 -0.719238 2.342319 1.113892 2.708435 -1.701355 0.00 0.00 0.8 0.8 0.076 -0.044 -0.3525 0.2535 0.4263 0.0088 0.041528 -1.309702 11.94 490 810 0.00 0.00 0.0000 0.0000
0.413 4 9.621011 -0.745610 2.553296 1.029968 2.349854 -1.541138 0.00 0.00 -0.8 0.8 0.013 0.013 -0.3436 0.2488 0.4263 0.0088 0.041528 -1.309908 11.94 490 810 0.00 0.00 0.0000 0.0000
0.414 4 9.585049 -0.522646 2.670771 0.816345 2.388000 -1.304626 0.00 0.00 0.8 -0.8 -0.006 -0.000 -0.3349 0.2442 0.4263 0.0088 0.041528 -1.309774 11.93 510 840 0.00 0.00 0.0000 0.0000
