%  1    time 0.000 sec
%  2    mission (3) line 0
%  3  4  5 Acc x,y,z: 4.749370 -0.294888 8.774707
%  6  7  8 Gyro x,y,z: 0.076294 -1.350403 -2.113342
%  9 10 Motor velocity ref left, right: -0.99 -0.99
% 11 12 Motor voltage [V] left, right: -0.8 -0.8
% 13 14 Motor current left, right [A]: 0.000 -0.013
% 15 16 Wheel velocity [r/s] left, right: 0.0062 0.0061
% 17 18 19 21 Pose x,y,h,tilt [m,m,rad,rad]: 0.0000 0.0000 0.000000 -0.498902
% 21    Battery voltage [V]: 11.91
% 22 23 Get data time [us]: 510 +ctrl 860
% 24 25 26 27 Extra pt.: balE[0], balU[0], balUI[0], balUI[1]: 0.09 -0.9862 0.0000 0.0000
0.001 0 4.770947 -0.232554 8.779502 0.160217 -1.327515 -1.960754 -1.94 -1.94 -1.0 -1.0 -0.044 -0.019 0.0062 0.0061 0.0000 0.0000 0.000000 -0.498886 11.91 490 860 0.09 -0.99 0.0000 0.0000
0.002 0 4.711010 -0.254131 8.863413 0.228882 -1.251221 -1.953125 -2.89 -2.89 -1.5 -1.5 -0.006 -0.006 0.0062 0.0061 0.0000 0.0000 0.000000 -0.498795 11.91 490 820 0.09 -0.99 0.0000 0.0000
0.003 0 4.730190 -0.323657 8.781899 0.160217 -1.174927 -1.930237 -3.84 -3.84 -1.8 -1.8 -0.070 -0.063 0.0062 0.0061 0.0000 0.0000 0.000000 -0.498667 11.91 490 820 0.09 -0.99 0.0000 0.0000
0.004 0 4.718203 -0.290093 8.769912 -0.099182 -0.984192 -1.777649 -4.80 -4.80 -2.2 -2.2 -0.165 -0.165 0.0062 0.0061 0.0000 0.0000 0.000000 -0.498590 11.91 490 820 0.09 -0.99 0.0000 0.0000
0.005 0 4.720601 -0.314067 8.846631 -0.289917 -1.213074 -1.693726 -5.75 -5.75 -2.5 -2.5 -0.209 -0.298 0.0062 0.0061 0.0000 0.0000 0.000000 -0.498476 11.85 510 840 0.09 -0.99 0.0000 0.0000
0.006 0 4.758960 -0.302080 8.822656 -0.328064 -1.457214 -1.480103 -6.70 -6.70 -2.8 -2.8 -0.310 -0.424 0.0062 0.0061 0.0000 0.0000 0.000000 -0.498379 11.85 490 820 0.09 -0.99 0.0000 0.0000
0.007 0 4.806909 -0.230156 8.757924 -0.213623 -1.449585 -1.403809 -7.65 -7.65 -3.1 -3.1 -0.443 -0.532 0.0062 0.0061 0.0000 0.0000 0.000000 -0.498403 11.85 490 820 0.09 -0.99 0.0000 0.0000
0.008 0 4.725395 -0.263721 8.846631 -0.091553 -1.533508 -1.296997 -8.61 -8.61 -3.3 -3.3 -0.545 -0.640 0.0062 0.0061 0.0000 0.0000 0.000000 -0.498387 11.85 490 940 0.09 -0.99 0.0000 0.0000
0.009 0 4.816499 -0.304478 8.870605 -0.091553 -1.449585 -1.182556 -9.56 -9.56 -3.5 -3.5 -0.678 -0.747 0.0062 0.0061 0.0000 0.0000 0.000000 -0.498326 11.85 490 820 0.09 -0.99 0.0000 0.0000
0.010 0 4.886025 -0.306875 8.750732 -0.213623 -1.617432 -1.091003 -10.51 -10.51 -3.7 -3.7 -0.709 -0.792 0.0061 0.0061 0.0000 0.0000 0.000000 -0.498452 11.79 510 840 0.09 -0.99 0.0000 0.0000
0.011 0 4.816499 -0.237349 8.726758 -0.457764 -1.892090 -0.869751 -11.47 -11.47 -3.9 -3.9 -0.741 -0.709 0.0061 -0.0061 -0.0002 0.0000 -0.002595 -0.498647 11.79 490 850 0.09 -0.99 0.0000 0.0000
0.012 0 4.646279 -0.362017 8.839438 -0.480652 -1.533508 -0.373840 -12.42 -12.42 -4.1 -4.1 -0.766 -0.728 -0.0061 -0.0061 -0.0004 0.0000 0.000000 -0.498587 11.79 490 850 0.09 -0.99 0.0000 0.0000
0.013 0 4.327417 -0.194194 8.712373 -1.281738 -1.426697 -0.076294 -13.37 -13.37 -4.2 -4.2 -0.817 -0.760 -0.0061 -0.0061 -0.0004 0.0000 0.000000 -0.498096 11.79 490 810 0.09 -0.99 0.0000 0.0000
0.014 0 4.828486 -0.496274 8.175342 -1.655579 -1.380920 -0.167847 -14.32 -14.32 -3.9 -4.4 -0.906 -0.836 -5.0837 -0.0061 -0.0008 0.0000 0.000000 -0.498103 11.79 490 820 0.09 -0.99 0.0000 0.0000
0.015 0 5.312773 -0.865483 7.830107 -0.411987 -1.434326 -0.434875 -15.28 -15.28 -5.3 -4.4 -0.957 -0.868 -5.0837 -4.3342 -0.0008 0.0000 0.000000 -0.499449 11.74 510 840 0.09 -0.99 0.0000 0.0000
0.016 0 4.360981 -0.769585 9.323726 0.053406 -1.068115 -0.572205 -16.23 -16.23 -6.3 -5.9 -0.899 -0.906 -6.7953 -4.3342 -0.0012 0.0000 0.000000 -0.499814 11.74 490 790 0.09 -0.99 0.0000 0.0000
0.017 0 4.399341 1.057280 10.637534 0.221252 -0.434875 -0.236511 -17.18 -17.18 -7.0 -6.9 -1.071 -0.976 -6.7953 -6.8296 -0.0012 0.0000 0.000000 -0.498144 11.74 490 730 0.09 -0.99 0.0000 0.0000
0.018 0 4.790127 -0.323657 9.069594 -0.328064 -0.610352 0.152588 -18.13 -18.13 -6.8 -6.9 -1.311 -1.178 -8.3473 -8.0974 -0.0016 0.0000 0.000000 -0.496983 11.74 490 750 0.09 -0.99 0.0000 0.0000
0.019 0 4.850063 0.304478 6.595415 -0.259399 -1.617432 0.419617 -19.09 -19.09 -6.8 -6.4 -1.299 -1.394 -9.5906 -10.4021 -0.0020 0.0000 0.000000 -0.498250 11.74 490 750 0.09 -0.99 0.0000 0.0000
0.020 0 4.926782 -0.501069 8.726758 -0.358582 -1.785278 0.473022 -20.04 -20.04 -7.5 -7.0 -1.368 -1.463 -9.5906 -10.4021 -0.0020 0.0000 0.000000 -0.499779 11.36 510 770 0.09 -0.99 0.0000 0.0000
0.021 0 4.404136 -0.405171 9.345303 -0.022888 -1.266479 0.457764 -20.99 -20.99 -7.3 -7.2 -1.432 -1.558 -11.1758 -11.2689 -0.0024 0.0000 0.000000 -0.499358 11.36 490 750 0.09 -0.99 0.0000 0.0000
0.022 0 4.413725 -0.282900 9.230225 -0.213623 -0.061035 0.747681 -21.94 -21.94 -7.4 -7.2 -1.590 -1.691 -12.2934 -12.5210 -0.0030 0.0000 -0.002595 -0.498258 11.36 490 780 0.09 -0.99 0.0000 0.0000
0.023 0 4.459277 -0.577788 8.192123 -0.495911 -0.442505 1.327515 -22.90 -22.90 -7.6 -6.6 -1.710 -1.679 -13.1288 -14.8601 -0.0034 0.0000 -0.002595 -0.497747 11.36 490 780 0.09 -0.99 0.0000 0.0000
0.024 0 4.936372 -0.175015 8.858618 -1.472473 -0.663757 1.319885 -23.85 -23.85 -7.1 -7.1 -1.869 -1.356 -15.1940 -15.0252 -0.0040 0.0000 0.000000 -0.497870 11.36 490 780 0.09 -0.99 0.0000 0.0000
0.025 0 5.140156 0.146245 8.894580 -1.129150 -1.609802 1.258850 -24.80 -24.80 -7.2 -7.0 -1.932 -1.311 -16.2924 -16.4911 -0.0044 0.0000 0.000000 -0.498252 11.20 510 770 0.09 -0.99 0.0000 0.0000
0.026 0 4.950757 -0.637725 8.635654 -1.045227 -1.739502 1.396179 -25.75 -25.75 -7.3 -6.5 -1.913 -1.381 -17.3368 -18.5242 -0.0050 0.0000 -0.002595 -0.498757 11.20 490 780 0.09 -0.99 0.0000 0.0000
0.027 0 4.684639 -0.177412 9.232622 -1.129150 -1.846313 1.579285 -26.71 -26.71 -7.1 -6.8 -1.514 -1.419 -18.7815 -19.3181 -0.0056 0.0000 0.000000 -0.498714 11.20 490 770 0.09 -0.99 0.0000 0.0000
0.029 0 4.555176 -0.469902 9.546689 -0.938416 -0.869751 1.708984 -27.66 -27.66 -7.3 -6.6 -1.406 -1.520 -19.5981 -20.8041 -0.0062 0.0000 -0.002595 -0.497919 11.20 490 1070 0.09 -0.99 0.0000 0.0000
0.029 0 4.303442 0.011987 9.036030 -0.984192 -0.587463 1.747131 -28.61 -28.61 -7.2 -6.8 -1.527 -1.482 -21.1292 -21.4646 -0.0070 0.0000 -0.002595 -0.496881 11.20 490 750 0.09 -0.99 0.0000 0.0000
0.030 0 4.490444 -0.477095 7.082099 -1.838684 -0.694275 2.197266 -29.57 -29.57 -7.0 -6.5 -1.577 -1.159 -22.5378 -23.3150 -0.0076 0.0000 0.000000 -0.497048 11.36 510 780 0.09 -0.99 0.0000 0.0000
0.031 0 5.104194 -0.261323 7.405756 -2.044678 -1.724243 2.731323 -30.52 -30.52 -7.2 -6.6 -1.546 -1.134 -23.3150 -24.1477 -0.0082 0.0000 -0.002595 -0.498796 11.36 490 750 0.09 -0.99 0.0000 0.0000
0.032 0 4.785332 -0.455518 9.589844 -1.617432 -2.166748 2.754211 -31.47 -31.47 -6.9 -6.8 -1.229 -1.134 -25.0420 -25.0420 -0.0091 0.0000 -0.002595 -0.499510 11.36 490 740 0.09 -0.99 0.0000 0.0000
0.033 0 4.701421 -0.187002 11.443081 -0.968933 -1.846313 2.243042 -32.42 -32.42 -7.3 -6.6 -1.273 -1.096 -25.5145 -26.5151 -0.0099 0.0000 -0.002595 -0.498096 11.36 490 750 0.09 -0.99 0.0000 0.0000
0.034 0 4.722998 -0.457915 8.662026 -0.106812 -1.541138 2.151489 -33.38 -33.38 -7.4 -7.5 -1.311 -1.014 -26.5151 -26.0052 -0.0107 0.0000 -0.002595 -0.497064 11.36 490 750 0.09 -0.99 0.0000 0.0000
0.035 0 4.375366 -0.409966 6.549863 0.839233 -0.541687 2.220154 -34.33 -34.33 -7.1 -7.5 -1.470 -1.090 -28.1723 -27.0454 -0.0115 0.0000 -0.002595 -0.498013 11.28 510 770 0.09 -0.99 0.0000 0.0000
0.036 0 4.171582 0.100693 8.007520 -0.305176 0.106812 2.021790 -35.28 -35.28 -8.0 -7.6 -1.229 -1.248 -27.5973 -28.1723 -0.0123 0.0000 -0.002595 -0.498741 11.28 490 750 0.09 -0.99 0.0000 0.0000
0.037 0 5.279209 0.134258 8.916157 -1.800537 -0.137329 2.830505 -36.23 -36.23 -7.7 -7.5 -1.178 -1.533 -29.3972 -29.3972 -0.0133 0.0000 -0.000000 -0.498913 11.28 490 750 0.09 -0.99 0.0000 0.0000
0.038 0 4.696626 0.004795 8.484614 -2.456665 -1.251221 3.303528 -37.19 -37.19 -7.9 -7.4 -1.362 -1.204 -30.0504 -30.7334 -0.0141 0.0000 -0.000000 -0.499344 11.28 490 720 0.09 -0.99 0.0000 0.0000
0.039 0 4.766152 -0.541826 11.783520 -1.976013 -1.174927 3.311157 -38.14 -38.14 -7.8 -7.2 -1.337 -1.166 -31.4481 -32.1969 -0.0151 0.0000 -0.002595 -0.498288 11.28 490 750 0.09 -0.99 0.0000 0.0000
0.040 0 5.300786 -0.637725 11.119424 -0.984192 -1.312256 2.891541 -39.09 -39.09 -7.6 -7.9 -1.273 -1.286 -32.9822 -32.1969 -0.0161 0.0000 -0.000000 -0.496652 11.33 510 780 0.09 -0.99 0.0000 0.0000
0.041 0 4.365776 -0.390786 4.905205 0.442505 -2.075195 2.494812 -40.04 -40.04 -8.2 -7.6 -1.330 -1.134 -32.9822 -33.8067 -0.0169 0.0000 -0.000000 -0.498452 11.33 490 720 0.09 -0.99 0.0000 0.0000
0.042 0 4.471264 -1.086050 7.161216 0.450134 -1.693726 2.304077 -41.00 -41.00 -8.4 -7.8 -1.539 -1.115 -33.8067 -34.6736 -0.0181 0.0000 -0.000000 -0.501341 11.33 490 720 0.09 -0.99 0.0000 0.0000
0.043 0 5.156939 0.529839 10.915639 -2.639771 -0.442505 3.013611 -41.95 -41.95 -8.6 -7.9 -1.311 -1.210 -34.6736 -35.5860 -0.0191 0.0000 -0.002595 -0.501328 11.33 490 760 0.09 -0.99 0.0000 0.0000
0.044 0 4.389751 0.074321 8.659629 -5.661011 -0.167847 4.356384 -42.90 -42.90 -8.7 -8.5 -1.368 -1.153 -35.5860 -35.5860 -0.0201 0.0000 -0.000000 -0.500421 11.33 490 740 0.09 -0.99 0.0000 0.0000
0.045 0 4.684639 -0.937407 6.808789 -4.196167 0.183105 4.447937 -43.85 -43.85 -9.3 -8.6 -1.501 -1.128 -35.5860 -36.5478 -0.0211 0.0000 -0.002595 -0.501124 11.23 510 780 0.09 -0.99 0.0000 0.0000
0.046 0 4.696626 -0.340439 10.038169 -0.900269 0.923157 3.204346 -44.81 -44.81 -8.9 -8.7 -1.337 -1.311 -37.5630 -37.5630 -0.0223 0.0000 -0.002595 -0.501491 11.23 490 760 0.09 -0.99 0.0000 0.0000
0.047 0 4.214736 -1.021318 10.057348 3.295898 0.152588 2.189636 -45.76 -45.76 -8.8 -9.3 -1.444 -1.254 -38.6363 -37.5630 -0.0233 0.0000 -0.000000 -0.499813 11.23 490 750 0.09 -0.99 0.0000 0.0000
0.049 0 5.715547 0.445928 8.367139 0.511169 -0.793457 2.525330 -46.71 -46.71 -8.7 -9.3 -1.729 -1.273 -39.7726 -38.6363 -0.0245 0.0000 -0.000000 -0.499784 11.23 490 1030 0.09 -0.99 0.0000 0.0000
0.049 0 4.910000 1.450464 6.595415 -2.937317 -2.838135 4.623413 -47.67 -47.67 -8.6 -8.6 -1.406 -1.609 -40.9779 -40.9779 -0.0257 0.0000 -0.000000 -0.502188 11.23 480 720 0.09 -0.99 0.0000 0.0000
0.050 0 4.408930 -1.510400 9.544291 -4.089355 -1.823425 5.584717 -48.62 -48.62 -8.4 -8.4 -1.362 -1.463 -42.2584 -42.2584 -0.0270 0.0000 -0.000000 -0.502905 11.25 510 730 0.09 -0.99 0.0000 0.0000
0.051 0 5.166528 -0.369209 12.476386 -3.158569 -0.671387 4.798889 -49.57 -49.57 -8.2 -9.6 -1.197 -1.273 -43.6216 -40.9779 -0.0282 0.0000 -0.000000 -0.501139 11.25 490 720 0.09 -0.99 0.0000 0.0000
0.052 0 4.075684 -1.289834 7.575976 -1.075745 -1.617432 4.051208 -50.52 -50.52 -8.7 -10.1 -1.128 -1.248 -43.6216 -40.9779 -0.0296 0.0000 -0.002595 -0.500010 11.25 490 760 0.09 -0.99 0.0000 0.0000
0.053 0 4.454482 -0.867881 6.336489 0.221252 -2.265930 4.127502 -51.48 -51.48 -8.4 -8.4 -1.349 -1.368 -45.0756 -45.0756 -0.0308 0.0000 -0.002595 -0.501095 11.25 490 750 0.09 -0.99 0.0000 0.0000
0.054 0 4.665459 0.534634 10.241953 1.625061 -0.717163 4.104614 -52.43 -52.43 -8.9 -8.1 -1.172 -1.622 -45.0756 -46.6300 -0.0322 0.0000 -0.000000 -0.501497 11.25 490 760 0.09 -0.99 0.0000 0.0000
0.055 0 4.953154 0.014385 8.280829 0.579834 -0.022888 3.349304 -53.38 -53.38 -9.5 -8.6 -1.216 -1.311 -45.0756 -46.6300 -0.0336 0.0000 -0.002595 -0.501142 11.33 510 780 0.09 -0.99 0.0000 0.0000
0.056 0 5.449429 0.980561 5.653213 -0.732422 -0.411987 3.501892 -54.33 -54.33 -8.2 -8.2 -1.191 -1.128 -48.2953 -48.2953 -0.0348 0.0000 -0.002595 -0.504154 11.33 490 760 0.09 -0.99 0.0000 0.0000
0.057 0 3.267739 1.666235 8.206509 -2.136230 -0.274658 3.715515 -55.29 -55.29 -7.8 -7.8 -1.216 -1.007 -50.0841 -50.0841 -0.0364 0.0000 -0.002595 -0.505523 11.33 490 750 0.09 -0.99 0.0000 0.0000
0.058 0 5.389492 -1.249077 14.895424 -2.426147 2.738953 3.433228 -56.24 -56.24 -8.3 -7.3 -1.292 -0.931 -50.0841 -52.0104 -0.0376 0.0001 -0.002595 -0.502681 11.33 490 750 0.09 -0.99 0.0000 0.0000
0.059 0 5.950498 0.656904 11.591723 -2.677917 -0.076294 2.929688 -57.19 -57.19 -8.8 -7.8 -1.058 -0.874 -50.0841 -52.0104 -0.0392 0.0001 -0.002595 -0.500836 11.33 490 750 0.09 -0.99 0.0000 0.0000
0.060 0 5.156939 -1.901186 3.922246 -1.960754 -3.967285 3.715515 -58.14 -58.14 -9.3 -8.3 -1.102 -0.760 -50.0841 -52.0104 -0.0404 0.0001 -0.002595 -0.504764 11.42 510 780 0.09 -0.99 0.0000 0.0000
0.061 0 4.792524 -0.414761 6.348476 -2.326965 -4.020691 3.730774 -59.10 -59.10 -9.8 -8.8 -1.026 -0.836 -50.0841 -52.0104 -0.0420 0.0001 -0.002595 -0.510354 11.42 490 760 0.09 -0.99 0.0000 0.0000
0.062 0 3.785591 -0.889458 10.781382 -1.525879 -0.183105 3.280640 -60.05 -60.05 -9.3 -9.3 -1.248 -0.817 -52.0104 -52.0104 -0.0436 0.0001 -0.002595 -0.510030 11.42 490 750 0.09 -0.99 0.0000 0.0000
0.063 0 3.572217 -0.577788 9.776845 -1.655579 1.777649 3.700256 -61.00 -61.00 -9.8 -9.8 -1.305 -1.039 -52.0104 -52.0104 -0.0451 0.0001 -0.005191 -0.506729 11.42 490 750 0.09 -0.99 0.0000 0.0000
0.064 0 4.260288 -0.882266 6.235795 -4.821777 1.792908 4.379272 -61.95 -61.95 -10.3 -9.2 -1.311 -1.052 -52.0104 -54.0908 -0.0465 0.0001 -0.002595 -0.506066 11.42 490 760 0.09 -0.99 0.0000 0.0000
0.065 0 6.099141 0.484287 7.743799 -3.486633 0.541687 4.920959 -62.91 -62.91 -10.9 -8.5 -1.286 -1.185 -52.0104 -56.3446 -0.0481 0.0001 -0.002595 -0.508564 11.20 510 780 0.09 -0.99 0.0000 0.0000
0.066 0 5.128169 -1.925161 9.930283 -0.991821 -0.030518 4.707336 -63.86 -63.86 -11.2 -9.0 -1.489 -0.988 -52.0104 -56.3446 -0.0495 0.0001 -0.005191 -0.509815 11.20 490 760 0.09 -0.99 0.0000 0.0000
0.067 0 4.212339 1.098037 10.508071 1.571655 0.434875 4.127502 -64.81 -64.81 -10.8 -9.5 -1.812 -1.020 -54.0908 -56.3446 -0.0511 0.0001 -0.005191 -0.508210 11.20 490 740 0.09 -0.99 0.0000 0.0000
0.069 0 4.725395 0.352427 11.064281 1.701355 0.625610 3.196716 -65.77 -65.77 -10.1 -10.1 -1.774 -1.001 -56.3446 -56.3446 -0.0527 0.0001 -0.005191 -0.505909 11.20 490 1060 0.09 -0.99 0.0000 0.0000
0.069 0 4.761357 1.268257 7.911621 1.167297 -1.167297 2.120972 -66.72 -66.72 -9.3 -10.6 -1.666 -1.166 -58.7943 -56.3446 -0.0547 0.0001 -0.005191 -0.505256 11.20 480 750 0.09 -0.99 0.0000 0.0000
0.070 0 5.192900 0.608955 6.664941 -0.404358 -1.693726 2.151489 -67.67 -67.67 -9.8 -9.8 -1.527 -1.166 -58.7943 -58.7943 -0.0563 0.0001 -0.005191 -0.507192 11.07 510 780 0.09 -0.99 0.0000 0.0000
0.071 0 5.003501 1.064473 9.045620 -1.953125 -1.358032 1.785278 -68.62 -68.62 -8.8 -10.3 -1.349 -1.482 -61.4668 -58.7943 -0.0579 0.0001 -0.005191 -0.508731 11.07 490 760 0.09 -0.99 0.0000 0.0000
0.072 0 4.799716 -0.352427 10.668701 -2.883911 -1.594543 2.227783 -69.58 -69.58 -9.4 -9.4 -1.223 -1.330 -61.4668 -61.4668 -0.0595 0.0001 -0.005191 -0.507871 11.07 490 760 0.09 -0.99 0.0000 0.0000
0.073 0 5.276811 -0.999741 9.083980 -3.158569 -2.418518 2.197266 -70.53 -70.53 -9.9 -9.9 -1.058 -1.482 -61.4668 -61.4668 -0.0614 0.0001 -0.002595 -0.507245 11.07 490 760 0.09 -0.99 0.0000 0.0000
0.074 0 4.353789 -1.479233 7.156421 -3.173828 -2.120972 1.525879 -71.48 -71.48 -10.4 -10.4 -1.204 -1.204 -61.4668 -61.4668 -0.0632 0.0002 -0.005191 -0.507862 11.07 490 760 0.09 -0.99 0.0000 0.0000
0.075 0 4.135620 -1.889199 6.976611 -3.929138 -0.938416 2.449036 -72.43 -72.43 -10.9 -10.9 -1.166 -1.539 -61.4668 -61.4668 -0.0648 0.0002 -0.005191 -0.508541 10.93 510 780 0.09 -0.99 0.0000 0.0000
0.076 0 5.013091 -1.901186 6.178257 -2.388000 -0.389099 3.753662 -73.39 -73.39 -10.9 -10.9 -1.438 -1.349 -61.4668 -61.4668 -0.0668 0.0002 -0.005191 -0.510529 10.93 490 760 0.09 -0.99 0.0000 0.0000
0.077 0 4.138018 -0.618545 10.333056 -1.815796 -0.076294 4.058838 -74.34 -74.34 -10.3 -8.6 -1.394 -1.337 -64.3938 -67.6135 -0.0684 0.0002 -0.005191 -0.510944 10.93 490 740 0.09 -0.99 0.0000 0.0000
0.078 0 5.343940 -1.687812 14.089877 0.831604 0.175476 4.676819 -75.29 -75.29 -9.1 -9.1 -1.679 -1.292 -67.6135 -67.6135 -0.0704 0.0002 -0.005191 -0.508186 10.93 490 740 0.09 -0.99 0.0000 0.0000
0.079 0 5.878574 0.798354 9.920693 0.404358 -1.304626 4.806519 -76.24 -76.24 -10.9 -9.6 -1.381 -1.083 -64.3938 -67.6135 -0.0724 0.0002 -0.005191 -0.507018 10.93 490 760 0.09 -0.99 0.0000 0.0000
0.080 0 4.866846 2.584463 5.053847 -0.457764 -1.411438 3.379822 -77.20 -77.20 -10.1 -10.1 -1.229 -1.045 -67.6135 -67.6135 -0.0740 0.0002 -0.005191 -0.509888 11.17 510 770 0.09 -0.99 0.0000 0.0000
0.081 0 3.598589 2.208061 7.798940 0.389099 -0.106812 2.815247 -78.15 -78.15 -10.7 -8.7 -1.457 -0.995 -67.6135 -71.1721 -0.0760 0.0002 -0.005191 -0.511674 11.17 490 750 0.09 -0.99 0.0000 0.0000
0.082 0 4.428110 0.517852 9.553882 -0.823975 0.793457 -0.015259 -79.10 -79.10 -9.3 -9.3 -1.356 -0.944 -71.1721 -71.1721 -0.0780 0.0002 -0.005191 -0.510113 11.17 490 760 0.09 -0.99 0.0000 0.0000
0.083 0 5.432646 1.548760 8.261650 -3.059387 -0.289917 -1.174927 -80.05 -80.05 -9.8 -9.8 -1.292 -0.823 -71.1721 -71.1721 -0.0801 0.0002 -0.005191 -0.510064 11.17 490 760 0.09 -0.99 0.0000 0.0000
0.084 0 5.195298 -1.074062 7.343422 -3.753662 -1.792908 -0.282288 -81.01 -81.01 -10.3 -10.3 -1.090 -0.823 -71.1721 -71.1721 -0.0821 0.0003 -0.005191 -0.511837 11.17 490 760 0.09 -0.99 0.0000 0.0000
0.085 0 4.140415 -1.611094 9.843974 -4.173279 -0.900269 0.282288 -81.96 -81.96 -10.8 -10.8 -1.064 -1.121 -71.1721 -71.1721 -0.0841 0.0003 -0.005191 -0.511764 11.06 510 770 0.09 -0.99 0.0000 0.0000
0.086 0 4.291455 -0.496274 10.047758 -3.501892 0.244141 1.586914 -82.91 -82.91 -11.1 -11.1 -1.191 -1.090 -67.6135 -71.1721 -0.0861 0.0003 -0.005191 -0.509574 11.06 490 750 0.09 -0.99 0.0000 0.0000
0.087 0 4.339404 -2.565283 7.427334 -1.739502 -1.434326 2.166748 -83.87 -83.87 -11.1 -9.7 -1.216 -1.147 -71.1721 -75.1261 -0.0881 0.0003 -0.005191 -0.508725 11.06 490 760 0.09 -0.99 0.0000 0.0000
0.089 0 5.039463 -1.999482 6.684121 0.564575 -2.555847 2.655029 -84.82 -84.82 -11.1 -10.2 -1.362 -1.267 -71.1721 -75.1261 -0.0901 0.0003 -0.005191 -0.510317 11.06 500 1080 0.09 -0.99 0.0000 0.0000
0.089 0 4.941167 -1.090845 11.349580 1.502991 0.022888 2.990723 -85.77 -85.77 -11.1 -11.1 -1.381 -1.052 -71.1721 -71.1721 -0.0923 0.0003 -0.007786 -0.510696 11.06 490 760 0.09 -0.99 0.0000 0.0000
0.090 0 4.811704 0.618545 12.272602 1.617432 1.899719 2.082825 -86.72 -86.72 -11.2 -11.2 -1.292 -1.083 -75.1261 -75.1261 -0.0941 0.0003 -0.005191 -0.508331 11.15 510 780 0.09 -0.99 0.0000 0.0000
0.091 0 4.957949 1.153179 7.504053 0.762939 -0.015259 0.564575 -87.68 -87.68 -11.2 -11.2 -1.406 -1.229 -75.1261 -75.1261 -0.0961 0.0003 -0.005191 -0.507729 11.15 490 760 0.09 -0.99 0.0000 0.0000
0.092 0 5.761098 1.678223 6.149487 -1.243591 -1.510620 -0.823975 -88.63 -88.63 -11.2 -11.2 -1.318 -1.197 -75.1261 -75.1261 -0.0986 0.0003 -0.005191 -0.510923 11.15 490 760 0.09 -0.99 0.0000 0.0000
0.093 0 5.667597 1.946738 11.121821 -3.631592 -1.922607 -1.266479 -89.58 -89.58 -10.4 -11.2 -1.197 -1.178 -79.5453 -75.1261 -0.1006 0.0004 -0.005191 -0.512955 11.15 490 750 0.09 -0.99 0.0000 0.0000
0.094 0 5.581289 0.421953 11.114629 -5.928040 -2.059937 -0.068665 -90.53 -90.53 -10.9 -10.9 -1.280 -1.292 -79.5453 -79.5453 -0.1026 0.0004 -0.005191 -0.512106 11.15 490 750 0.09 -0.99 0.0000 0.0000
0.095 0 4.804512 -0.143848 6.041601 -5.516052 -3.089905 0.053406 -91.49 -91.49 -11.1 -11.1 -1.197 -1.191 -79.5453 -79.5453 -0.1050 0.0004 -0.005191 -0.513269 11.06 510 780 0.09 -0.99 0.0000 0.0000
0.096 0 2.368691 -2.922505 3.121494 -1.861572 -2.784729 -0.389099 -92.44 -92.44 -11.1 -9.3 -1.140 -1.121 -79.5453 -84.5168 -0.1070 0.0004 -0.005191 -0.516235 11.06 490 750 0.09 -0.99 0.0000 0.0000
0.097 0 2.354306 -1.874814 10.371416 2.593994 0.915527 -0.968933 -93.39 -93.39 -11.1 -9.8 -1.229 -1.134 -79.5453 -84.5168 -0.1094 0.0004 -0.005191 -0.514666 11.06 490 740 0.09 -0.99 0.0000 0.0000
0.098 0 5.274414 -1.570337 13.377831 2.716064 2.265930 -0.274658 -94.34 -94.34 -11.1 -10.3 -1.242 -0.842 -79.5453 -84.5168 -0.1116 0.0004 -0.007786 -0.510375 11.06 490 750 0.09 -0.99 0.0000 0.0000
0.099 0 6.835161 2.399858 7.400962 0.930786 -0.808716 1.647949 -95.30 -95.30 -11.1 -10.8 -1.147 -0.830 -79.5453 -84.5168 -0.1138 0.0004 -0.005191 -0.511357 11.06 490 760 0.09 -0.99 0.0000 0.0000
0.100 0 4.070889 -0.328452 4.639087 -0.854492 -3.623962 2.693176 -96.25 -96.25 -11.3 -11.3 -1.216 -1.007 -79.5453 -84.5168 -0.1163 0.0004 -0.005191 -0.515784 11.26 510 770 0.09 -0.99 0.0000 0.0000
0.101 0 5.741919 1.138794 13.603193 -2.639771 -0.122070 2.326965 -97.20 -97.20 -11.3 -11.3 -1.172 -1.039 -79.5453 -84.5168 -0.1185 0.0005 -0.007786 -0.516688 11.26 490 750 0.09 -0.99 0.0000 0.0000
0.102 0 6.698506 2.083394 14.531011 -2.540588 0.633240 -1.434326 -98.15 -98.15 -11.3 -11.3 -1.121 -1.001 -84.5168 -84.5168 -0.1207 0.0005 -0.005191 -0.514684 11.26 490 750 0.09 -0.99 0.0000 0.0000
0.103 0 4.279468 -1.191538 3.049570 -0.709534 -3.334045 -3.097534 -99.11 -99.11 -11.3 -11.3 -1.052 -1.172 -84.5168 -84.5168 -0.1231 0.0005 -0.005191 -0.518214 11.26 490 740 0.09 -0.99 0.0000 0.0000
0.104 0 2.898530 -0.002397 6.413208 -2.105713 -1.647949 -0.991821 -100.06 -100.06 -11.3 -11.3 -1.052 -1.064 -84.5168 -84.5168 -0.1255 0.0005 -0.005191 -0.521621 11.26 490 740 0.09 -0.99 0.0000 0.0000
0.105 0 2.958467 0.925420 11.769135 -3.097534 1.960754 -0.137329 -101.01 -101.01 -11.0 -11.0 -1.109 -1.039 -84.5168 -84.5168 -0.1279 0.0005 -0.005191 -0.517930 11.04 510 760 0.09 -0.99 0.0000 0.0000
0.106 0 5.319966 -3.615371 5.502172 0.610352 -1.411438 0.808716 -101.97 -101.97 -11.0 -11.0 -1.052 -1.052 -84.5168 -84.5168 -0.1301 0.0005 -0.007786 -0.517717 11.04 490 750 0.09 -0.99 0.0000 0.0000
0.107 0 6.938252 -2.689951 3.433164 6.240845 -3.265381 1.617432 -102.92 -102.92 -11.0 -11.0 -0.988 -1.033 -84.5168 -84.5168 -0.1326 0.0005 -0.007786 -0.526119 11.04 490 740 0.09 -0.99 0.0000 0.0000
0.109 0 5.214478 -3.392407 17.508657 4.623413 1.464844 3.288269 -103.87 -103.87 -11.0 -11.0 -1.096 -1.090 -84.5168 -90.1513 -0.1350 0.0006 -0.007786 -0.529585 11.04 490 1060 0.09 -0.99 0.0000 0.0000
0.109 0 1.663838 4.325019 12.092793 -2.044678 0.961304 -0.907898 -104.82 -104.82 -11.0 -11.0 -1.083 -1.014 -84.5168 -90.1513 -0.1378 0.0006 -0.007786 -0.523297 11.04 490 750 0.09 -0.99 0.0000 0.0000
0.110 0 6.058383 4.075684 4.245903 -6.652832 0.167847 -4.463196 -105.78 -105.78 -11.2 -11.2 -1.001 -0.944 -84.5168 -90.1513 -0.1398 0.0006 -0.007786 -0.523778 11.25 510 780 0.09 -0.99 0.0000 0.0000
0.111 0 5.411069 1.397720 8.184932 -5.477905 -1.243591 -3.265381 -106.73 -106.73 -11.2 -11.2 -1.014 -1.052 -84.5168 -90.1513 -0.1422 0.0006 -0.007786 -0.528700 11.25 490 760 0.09 -0.99 0.0000 0.0000
0.112 0 5.583686 -1.277847 7.549604 -0.183105 -1.770020 -1.472473 -107.68 -107.68 -11.2 -11.2 -0.982 -0.918 -84.5168 -84.5168 -0.1446 0.0006 -0.007786 -0.530345 11.25 490 750 0.09 -0.99 0.0000 0.0000
0.113 0 4.830884 -1.157974 6.199834 1.937866 -2.120972 -0.976562 -108.63 -108.63 -11.2 -11.2 -1.071 -0.938 -84.5168 -90.1513 -0.1474 0.0007 -0.007786 -0.532735 11.25 490 750 0.09 -0.99 0.0000 0.0000
0.114 0 2.191279 -1.560747 9.911103 0.976562 1.121521 -1.304626 -109.59 -109.59 -11.2 -11.2 -0.982 -0.957 -84.5168 -90.1513 -0.1499 0.0007 -0.007786 -0.530903 11.25 490 750 0.09 -0.99 0.0000 0.0000
0.115 0 2.457397 -0.865483 13.948427 -0.976562 4.158020 0.465393 -110.54 -110.54 -11.4 -11.4 -0.938 -0.893 -90.1513 -90.1513 -0.1525 0.0007 -0.010382 -0.524225 11.37 510 780 0.09 -0.99 0.0000 0.0000
0.116 0 6.010434 -1.035703 9.484355 -1.167297 1.602173 -5.073547 -111.49 -111.49 -11.4 -11.4 -0.976 -0.918 -90.1513 -96.5907 -0.1549 0.0007 -0.010382 -0.521114 11.37 490 760 0.09 -0.99 0.0000 0.0000
0.117 0 7.376987 0.872676 3.603384 -1.045227 -3.593445 -5.256653 -112.44 -112.44 -11.4 -11.4 -0.963 -0.918 -90.1513 -96.5907 -0.1573 0.0007 -0.010382 -0.527458 11.37 490 760 0.09 -0.99 0.0000 0.0000
0.118 0 6.300527 -0.661699 8.479819 -0.656128 -4.562378 -3.974915 -113.40 -113.40 -11.4 -11.4 -0.925 -0.899 -79.5453 -96.5907 -0.1599 0.0008 -0.007786 -0.534464 11.37 490 770 0.09 -0.99 0.0000 0.0000
0.119 0 3.982183 -0.232554 14.173789 -1.586914 -1.220703 -0.701904 -114.35 -114.35 -11.4 -11.4 -0.931 -0.880 -90.1513 -96.5907 -0.1625 0.0008 -0.010382 -0.532970 11.37 490 760 0.09 -0.99 0.0000 0.0000
0.120 0 2.495757 -0.513057 9.870346 -4.623413 1.518250 1.747131 -115.30 -115.30 -11.4 -11.4 -0.887 -0.817 -90.1513 -96.5907 -0.1651 0.0008 -0.012977 -0.527577 11.37 510 780 0.09 -0.99 0.0000 0.0000
0.121 0 3.229380 -0.369209 1.138794 -4.714966 -1.014709 6.011963 -116.26 -116.26 -11.4 -11.4 -0.963 -0.925 -90.1513 -96.5907 -0.1678 0.0009 -0.010382 -0.531774 11.37 490 760 0.09 -0.99 0.0000 0.0000
0.122 0 5.236054 -2.339922 4.962744 -0.816345 -1.953125 3.967285 -117.21 -117.21 -11.4 -11.4 -0.925 -0.938 -90.1513 -96.5907 -0.1704 0.0009 -0.012977 -0.541506 11.37 490 770 0.09 -0.99 0.0000 0.0000
0.123 0 5.600469 -0.287695 14.250507 3.105164 -0.251770 -0.915527 -118.16 -118.16 -11.4 -11.4 -0.880 -0.861 -96.5907 -96.5907 -0.1728 0.0009 -0.012977 -0.542551 11.37 490 750 0.09 -0.99 0.0000 0.0000
0.124 0 5.981665 -0.282900 13.691899 3.143311 0.679016 -4.493713 -119.11 -119.11 -11.4 -11.4 -0.899 -0.817 -96.5907 -96.5907 -0.1756 0.0010 -0.012977 -0.539590 11.37 490 750 0.09 -0.99 0.0000 0.0000
0.125 0 4.492842 3.843130 7.875659 -0.709534 -0.373840 -4.631042 -120.07 -120.07 -11.4 -11.4 -0.823 -0.773 -96.5907 -96.5907 -0.1780 0.0010 -0.012977 -0.538113 11.41 510 780 0.09 -0.99 0.0000 0.0000
0.126 0 4.722998 0.486685 7.753388 -3.822327 -0.587463 -2.120972 -121.02 -121.02 -11.4 -11.4 -0.868 -0.861 -96.5907 -96.5907 -0.1808 0.0010 -0.012977 -0.538016 11.41 490 760 0.09 -0.99 0.0000 0.0000
0.127 0 5.559712 0.294888 8.952119 -5.386353 -0.320435 -0.305176 -121.97 -121.97 -11.4 -11.4 -0.874 -0.792 -96.5907 -96.5907 -0.1832 0.0011 -0.012977 -0.538289 11.41 490 760 0.09 -0.99 0.0000 0.0000
0.129 0 4.454482 -1.136396 6.329297 -3.990173 -1.762390 -2.220154 -122.92 -122.92 -11.4 -11.4 -0.849 -0.874 -96.5907 -96.5907 -0.1861 0.0011 -0.012977 -0.539222 11.41 490 1100 0.09 -0.99 0.0000 0.0000
0.129 0 2.630015 -3.454741 6.684121 0.419617 -1.152039 3.433228 -123.88 -123.88 -11.4 -11.4 -0.861 -0.842 -96.5907 -96.5907 -0.1891 0.0011 -0.015573 -0.538353 11.41 490 760 0.09 -0.99 0.0000 0.0000
0.130 0 1.496016 -1.002139 11.538980 0.129700 2.197266 5.187988 -124.83 -124.83 -11.4 -11.4 -0.830 -0.792 -96.5907 -96.5907 -0.1915 0.0012 -0.015573 -0.532672 11.39 510 780 0.09 -0.99 0.0000 0.0000
0.131 0 5.490185 1.021318 10.455327 1.640320 3.295898 2.647400 -125.78 -125.78 -11.4 -11.4 -0.868 -0.754 -96.5907 -96.5907 -0.1939 0.0012 -0.015573 -0.528140 11.39 490 760 0.09 -0.99 0.0000 0.0000
0.132 0 7.703042 -1.786108 4.200351 0.778198 -0.900269 -2.105713 -126.73 -126.73 -11.4 -11.4 -0.804 -0.722 -96.5907 -96.5907 -0.1967 0.0013 -0.015573 -0.533059 11.39 490 760 0.09 -0.99 0.0000 0.0000
0.133 0 6.525888 0.927817 8.820258 -0.442505 -1.556396 -2.403259 -127.69 -127.69 -11.4 -11.4 -0.861 -0.861 -90.1513 -104.0207 -0.1995 0.0013 -0.015573 -0.539441 11.39 490 760 0.09 -0.99 0.0000 0.0000
0.134 0 4.876435 -0.376401 15.348544 -4.333496 1.449585 -2.166748 -128.64 -128.64 -11.4 -11.4 -0.849 -0.735 -96.5907 -104.0207 -0.2021 0.0013 -0.018168 -0.538112 11.39 490 760 0.09 -0.99 0.0000 0.0000
0.135 0 3.286919 2.562886 9.060004 -7.873535 4.333496 -0.869751 -129.59 -129.59 -11.3 -11.3 -0.798 -0.766 -96.5907 -104.0207 -0.2050 0.0014 -0.018168 -0.533898 11.28 510 780 0.09 -0.99 0.0000 0.0000
0.136 0 2.644399 -0.743213 -1.289834 -8.674622 0.709534 -0.244141 -130.54 -130.54 -11.3 -11.3 -0.792 -0.754 -96.5907 -84.5168 -0.2078 0.0014 -0.018168 -0.546774 11.28 490 760 0.09 -0.99 0.0000 0.0000
0.137 0 5.087412 -2.076201 6.202231 -4.859924 0.221252 0.045776 -131.50 -131.50 -11.3 -11.3 -0.785 -0.728 -104.0207 -104.0207 -0.2104 0.0015 -0.020764 -0.562786 11.28 490 770 0.09 -0.99 0.0000 0.0000
0.138 0 5.039463 -1.946738 17.978559 1.785278 3.646851 1.678467 -132.45 -132.45 -11.3 -11.3 -0.836 -0.716 -104.0207 -104.0207 -0.2130 0.0015 -0.018168 -0.561116 11.28 490 760 0.09 -0.99 0.0000 0.0000
0.139 0 6.609799 -0.786367 11.316015 1.960754 2.052307 -1.121521 -133.40 -133.40 -11.3 -11.3 -0.804 -0.697 -104.0207 -104.0207 -0.2158 0.0016 -0.018168 -0.557895 11.28 490 760 0.09 -0.99 0.0000 0.0000
0.140 0 4.655869 2.431025 3.296509 -1.113892 -1.708984 -5.302429 -134.36 -134.36 -11.4 -11.4 -0.798 -0.773 -90.1513 -104.0207 -0.2186 0.0016 -0.018168 -0.561531 11.41 510 790 0.09 -0.99 0.0000 0.0000
0.141 0 4.032529 -0.405171 11.061885 -5.699158 0.099182 -5.348206 -135.31 -135.31 -11.4 -11.4 -0.785 -0.703 -104.0207 -104.0207 -0.2213 0.0017 -0.020764 -0.563339 11.41 490 760 0.09 -0.99 0.0000 0.0000
0.142 0 5.746714 0.493877 13.555243 -6.401062 3.448486 -0.129700 -136.26 -136.26 -11.4 -11.4 -0.754 -0.747 -104.0207 -104.0207 -0.2241 0.0018 -0.020764 -0.559585 11.41 490 750 0.09 -0.99 0.0000 0.0000
0.143 0 3.986977 -0.376401 2.368691 -5.310059 -0.877380 3.494263 -137.21 -137.21 -11.4 -11.4 -0.785 -0.735 -104.0207 -104.0207 -0.2269 0.0018 -0.020764 -0.562696 11.41 490 760 0.09 -0.99 0.0000 0.0000
0.144 0 4.106851 -2.277588 4.665459 -1.220703 -2.342224 4.325867 -138.17 -138.17 -11.4 -11.4 -0.773 -0.678 -104.0207 -96.5907 -0.2299 0.0019 -0.023359 -0.568973 11.41 490 770 0.09 -0.99 0.0000 0.0000
0.145 0 4.042119 0.141450 15.576303 0.907898 1.106262 0.961304 -139.12 -139.12 -11.4 -11.4 -0.830 -0.659 -104.0207 -104.0207 -0.2327 0.0019 -0.023359 -0.567377 11.44 510 780 0.09 -0.99 0.0000 0.0000
0.146 0 4.766152 -0.956587 12.140741 1.663208 3.257751 -2.769470 -140.07 -140.07 -11.4 -11.4 -0.804 -0.678 -104.0207 -104.0207 -0.2353 0.0020 -0.025955 -0.562322 11.44 490 760 0.09 -0.99 0.0000 0.0000
0.147 0 4.950757 2.028252 4.399341 -1.235962 0.320435 -3.616333 -141.02 -141.02 -11.4 -11.4 -0.747 -0.709 -104.0207 -104.0207 -0.2381 0.0021 -0.025955 -0.563219 11.44 490 760 0.09 -0.99 0.0000 0.0000
0.149 0 7.170805 -0.177412 5.662803 -4.425049 -1.770020 -5.187988 -141.98 -141.98 -11.4 -11.4 -0.754 -0.665 -104.0207 -104.0207 -0.2410 0.0022 -0.025955 -0.569373 11.44 490 1090 0.09 -0.99 0.0000 0.0000
0.149 0 6.832764 -1.131602 11.296836 -5.455017 0.061035 0.770569 -142.93 -142.93 -11.4 -11.4 -0.709 -0.709 -104.0207 -104.0207 -0.2442 0.0022 -0.025955 -0.572433 11.44 490 760 0.09 -0.99 0.0000 0.0000
0.150 0 2.951274 -0.563403 8.467832 -6.088257 0.869751 5.622864 -143.88 -143.88 -11.5 -11.5 -0.741 -0.697 -104.0207 -104.0207 -0.2466 0.0023 -0.025955 -0.569796 11.49 510 780 0.09 -0.99 0.0000 0.0000
0.151 0 4.015747 1.639863 7.784555 -5.844116 2.593994 4.714966 -144.83 -144.83 -11.5 -11.5 -0.754 -0.728 -104.0207 -104.0207 -0.2494 0.0024 -0.025955 -0.566519 11.49 490 750 0.09 -0.99 0.0000 0.0000
0.152 0 3.519473 0.079116 7.379385 -0.541687 1.922607 -0.198364 -145.79 -145.79 -11.5 -11.5 -0.785 -0.678 -104.0207 -104.0207 -0.2522 0.0025 -0.025955 -0.564383 11.49 490 760 0.09 -0.99 0.0000 0.0000
0.153 0 4.325019 -2.140933 9.220634 2.883911 1.945496 -4.806519 -146.74 -146.74 -11.5 -11.5 -0.741 -0.659 -104.0207 -96.5907 -0.2552 0.0025 -0.028550 -0.561922 11.49 490 770 0.09 -0.99 0.0000 0.0000
0.154 0 6.489926 0.551416 12.344526 2.227783 2.548218 -5.722046 -147.69 -147.69 -11.5 -11.5 -0.716 -0.684 -104.0207 -104.0207 -0.2581 0.0026 -0.028550 -0.559891 11.49 490 770 0.09 -0.99 0.0000 0.0000
0.155 0 5.257632 0.309272 8.093828 -3.479004 1.274109 0.343323 -148.64 -148.64 -11.5 -11.5 -0.709 -0.627 -104.0207 -104.0207 -0.2609 0.0027 -0.028550 -0.559267 11.50 510 780 0.09 -0.99 0.0000 0.0000
0.156 0 4.972334 1.400117 5.557314 -6.927490 -0.450134 2.708435 -149.60 -149.60 -11.5 -11.5 -0.709 -0.652 -104.0207 -104.0207 -0.2637 0.0028 -0.028550 -0.561116 11.50 490 760 0.09 -0.99 0.0000 0.0000
0.157 0 5.183311 -2.064214 7.072510 -5.043030 -0.717163 2.883911 -150.55 -150.55 -11.5 -11.5 -0.728 -0.646 -104.0207 -96.5907 -0.2667 0.0029 -0.031146 -0.563504 11.50 490 770 0.09 -0.99 0.0000 0.0000
0.158 0 3.214995 -0.450723 10.069336 -1.022339 1.541138 -0.350952 -151.50 -151.50 -11.5 -11.5 -0.671 -0.659 -104.0207 -104.0207 -0.2695 0.0030 -0.031146 -0.561660 11.50 490 750 0.09 -0.99 0.0000 0.0000
0.159 0 2.783452 1.205923 12.845595 1.487732 1.815796 -3.318787 -152.46 -152.46 -11.5 -11.5 -0.735 -0.583 -104.0207 -104.0207 -0.2723 0.0030 -0.031146 -0.555681 11.50 490 750 0.09 -0.99 0.0000 0.0000
0.160 0 5.104194 0.088706 9.872744 2.258301 1.197815 -4.417419 -153.41 -153.41 -11.5 -11.5 -0.690 -0.665 -104.0207 -104.0207 -0.2753 0.0031 -0.033741 -0.551489 11.52 510 780 0.09 -0.99 0.0000 0.0000
0.161 0 6.712891 0.851099 8.539756 1.510620 -0.541687 -5.310059 -154.36 -154.36 -11.5 -11.5 -0.716 -0.589 -104.0207 -104.0207 -0.2782 0.0032 -0.033741 -0.551883 11.52 490 760 0.09 -0.99 0.0000 0.0000
0.162 0 7.516040 -0.829521 7.336230 -1.907349 -2.563477 -1.182556 -155.31 -155.31 -11.5 -11.5 -0.722 -0.652 -104.0207 -104.0207 -0.2810 0.0033 -0.033741 -0.555473 11.52 490 750 0.09 -0.99 0.0000 0.0000
0.163 0 5.729931 -0.326055 7.961967 -3.715515 -3.135681 -4.173279 -156.27 -156.27 -11.5 -11.5 -0.671 -0.633 -104.0207 -104.0207 -0.2840 0.0034 -0.031146 -0.558595 11.52 490 770 0.09 -0.99 0.0000 0.0000
0.164 0 3.294111 -0.100693 7.619131 -2.853394 -1.007080 -5.790710 -157.22 -157.22 -11.5 -11.5 -0.684 -0.589 -104.0207 -104.0207 -0.2870 0.0035 -0.033741 -0.557786 11.52 490 760 0.09 -0.99 0.0000 0.0000
0.165 0 2.169702 0.529839 9.383662 -0.419617 2.075195 -2.433777 -158.17 -158.17 -11.5 -11.5 -0.627 -0.576 -104.0207 -104.0207 -0.2898 0.0036 -0.033741 -0.553022 11.47 510 780 0.09 -0.99 0.0000 0.0000
0.166 0 2.366294 0.256528 9.546689 -0.381470 2.830505 -1.045227 -159.12 -159.12 -11.5 -11.5 -0.659 -0.564 -104.0207 -104.0207 -0.2928 0.0037 -0.036337 -0.546684 11.47 490 760 0.09 -0.99 0.0000 0.0000
0.167 0 5.331953 -1.486426 8.599692 0.656128 2.365112 -4.135132 -160.08 -160.08 -11.5 -11.5 -0.564 -0.602 -104.0207 -104.0207 -0.2956 0.0038 -0.036337 -0.543714 11.47 490 760 0.09 -0.99 0.0000 0.0000
0.169 0 8.158559 -1.630273 7.331435 1.617432 -0.770569 -14.884949 -161.03 -161.03 -11.5 -11.5 -0.633 -0.570 -104.0207 -112.6891 -0.2985 0.0039 -0.036337 -0.546734 11.47 490 1100 0.09 -0.99 0.0000 0.0000
0.169 0 6.914277 0.594570 8.947324 -0.946045 -2.922058 -8.064270 -161.98 -161.98 -11.5 -11.5 -0.570 -0.602 -104.0207 -112.6891 -0.3019 0.0041 -0.038932 -0.550758 11.47 490 770 0.09 -0.99 0.0000 0.0000
0.170 0 4.279468 0.656904 10.301889 -4.425049 -2.471924 0.976562 -162.93 -162.93 -11.6 -11.6 -0.659 -0.570 -104.0207 -112.6891 -0.3045 0.0042 -0.036337 -0.550310 11.58 510 780 0.09 -0.99 0.0000 0.0000
0.171 0 3.545845 2.359102 9.196660 -4.882812 0.389099 6.187439 -163.89 -163.89 -11.6 -11.6 -0.633 -0.602 -104.0207 -96.5907 -0.3075 0.0043 -0.038932 -0.546973 11.58 490 760 0.09 -0.99 0.0000 0.0000
0.172 0 2.224844 1.678223 7.779760 -2.838135 1.564026 5.363464 -164.84 -164.84 -11.6 -11.6 -0.646 -0.564 -104.0207 -112.6891 -0.3103 0.0044 -0.038932 -0.542526 11.58 490 760 0.09 -0.99 0.0000 0.0000
0.173 0 3.416382 -0.242144 7.523232 1.998901 1.930237 0.343323 -165.79 -165.79 -11.6 -11.6 -0.678 -0.627 -104.0207 -112.6891 -0.3133 0.0045 -0.041528 -0.538731 11.58 490 770 0.09 -0.99 0.0000 0.0000
0.174 0 5.569302 -1.999482 10.810151 4.722595 1.617432 -5.683899 -166.74 -166.74 -11.6 -11.6 -0.589 -0.545 -104.0207 -112.6891 -0.3162 0.0046 -0.041528 -0.536963 11.58 490 750 0.09 -0.99 0.0000 0.0000
0.175 0 7.916416 -1.361758 10.309082 3.662109 0.404358 -2.662659 -167.70 -167.70 -11.4 -11.4 -0.614 -0.621 -104.0207 -112.6891 -0.3194 0.0048 -0.041528 -0.537507 11.44 510 790 0.09 -0.99 0.0000 0.0000
0.176 0 7.154023 -0.561006 6.897495 0.152588 -1.625061 0.305176 -168.65 -168.65 -11.4 -11.4 -0.570 -0.595 -104.0207 -112.6891 -0.3222 0.0049 -0.041528 -0.541314 11.44 490 760 0.09 -0.99 0.0000 0.0000
0.177 0 3.953413 0.839111 5.612456 -4.318237 -2.128601 0.183105 -169.60 -169.60 -11.4 -11.4 -0.583 -0.570 -112.6891 -112.6891 -0.3250 0.0050 -0.041528 -0.544660 11.44 490 760 0.09 -0.99 0.0000 0.0000
0.178 0 2.347114 1.289834 10.244350 -3.906250 0.724792 -1.747131 -170.56 -170.56 -11.4 -11.4 -0.595 -0.538 -112.6891 -112.6891 -0.3280 0.0051 -0.044123 -0.542193 11.44 490 760 0.09 -0.99 0.0000 0.0000
0.179 0 2.383076 -0.481890 11.344785 0.152588 3.562927 1.785278 -171.51 -171.51 -11.4 -11.4 -0.646 -0.526 -112.6891 -112.6891 -0.3308 0.0052 -0.044123 -0.535699 11.44 490 750 0.09 -0.99 0.0000 0.0000
0.180 0 3.802373 -0.561006 10.251543 5.203247 3.005981 1.068115 -172.46 -172.46 -11.5 -11.5 -0.633 -0.545 -112.6891 -112.6891 -0.3340 0.0054 -0.044123 -0.530601 11.55 510 780 0.09 -0.99 0.0000 0.0000
0.181 0 7.621528 -0.891855 8.961709 5.508423 0.007629 -2.342224 -173.41 -173.41 -11.5 -11.5 -0.690 -0.519 -112.6891 -112.6891 -0.3369 0.0055 -0.044123 -0.530563 11.55 490 760 0.09 -0.99 0.0000 0.0000
0.182 0 8.690796 0.537031 7.130049 2.265930 -3.410339 -0.885010 -174.37 -174.37 -11.5 -11.5 -0.646 -0.545 -112.6891 -112.6891 -0.3399 0.0056 -0.046719 -0.535813 11.55 490 770 0.09 -0.99 0.0000 0.0000
0.183 0 6.346079 0.266118 6.667339 -2.449036 -4.013062 2.471924 -175.32 -175.32 -11.5 -11.5 -0.551 -0.532 -112.6891 -112.6891 -0.3429 0.0058 -0.049314 -0.541549 11.55 490 760 0.09 -0.99 0.0000 0.0000
0.184 0 2.495757 1.572734 9.460381 -3.395081 -1.930237 7.606506 -176.27 -176.27 -11.5 -11.5 -0.564 -0.526 -112.6891 -112.6891 -0.3459 0.0059 -0.046719 -0.540962 11.55 490 760 0.09 -0.99 0.0000 0.0000
0.185 0 1.198730 -0.002397 10.623149 -2.700806 2.212524 5.546570 -177.22 -177.22 -11.5 -11.5 -0.576 -0.513 -112.6891 -112.6891 -0.3489 0.0061 -0.049314 -0.533914 11.55 510 780 0.09 -0.99 0.0000 0.0000
0.186 0 2.546103 0.899048 9.508329 1.243591 3.509521 -2.265930 -178.18 -178.18 -11.5 -11.5 -0.633 -0.545 -112.6891 -112.6891 -0.3517 0.0062 -0.049314 -0.526995 11.55 490 750 0.09 -0.99 0.0000 0.0000
0.187 0 5.355927 -2.665977 7.918813 3.746033 1.831055 -2.716064 -179.13 -179.13 -11.5 -11.5 -0.602 -0.507 -112.6891 -112.6891 -0.3547 0.0064 -0.051910 -0.524992 11.55 490 770 0.09 -0.99 0.0000 0.0000
0.189 0 8.050673 -0.644917 7.597553 2.243042 -1.258850 0.434875 -180.08 -180.08 -11.5 -11.5 -0.614 -0.564 -96.5907 -112.6891 -0.3577 0.0065 -0.049314 -0.528541 11.55 490 1110 0.09 -0.99 0.0000 0.0000
0.189 0 8.261650 -0.409966 4.823691 -0.831604 -3.784180 4.112244 -181.03 -181.03 -11.5 -11.5 -0.583 -0.513 -112.6891 -112.6891 -0.3612 0.0067 -0.051910 -0.536502 11.55 480 760 0.09 -0.99 0.0000 0.0000
0.190 0 4.543189 -0.249336 8.407895 -2.052307 -3.074646 7.736206 -181.99 -181.99 -11.6 -11.6 -0.621 -0.538 -112.6891 -112.6891 -0.3638 0.0068 -0.054505 -0.541162 11.56 510 790 0.09 -0.99 0.0000 0.0000
0.191 0 1.412104 -0.347632 13.279535 -2.349854 1.510620 7.240295 -182.94 -182.94 -11.6 -11.6 -0.621 -0.507 -112.6891 -112.6891 -0.3668 0.0070 -0.051910 -0.536414 11.56 490 760 0.09 -0.99 0.0000 0.0000
0.192 0 2.905723 2.476577 13.245972 -2.487183 4.272461 2.014160 -183.89 -183.89 -11.6 -11.6 -0.633 -0.589 -112.6891 -112.6891 -0.3698 0.0072 -0.054505 -0.528929 11.56 490 760 0.09 -0.99 0.0000 0.0000
0.193 0 3.692090 -0.306875 6.931059 0.419617 2.403259 0.747681 -184.84 -184.84 -11.6 -11.6 -0.646 -0.494 -112.6891 -112.6891 -0.3726 0.0073 -0.054505 -0.525381 11.56 490 760 0.09 -0.99 0.0000 0.0000
0.194 0 6.533081 -1.675825 6.585825 3.631592 -1.251221 1.319885 -185.80 -185.80 -11.6 -11.6 -0.583 -0.564 -104.0207 -112.6891 -0.3758 0.0075 -0.054505 -0.527550 11.56 490 750 0.09 -0.99 0.0000 0.0000
0.195 0 8.654834 -1.472041 9.007260 3.913879 -3.456116 5.081177 -186.75 -186.75 -11.5 -11.5 -0.608 -0.538 -112.6891 -112.6891 -0.3788 0.0076 -0.057101 -0.532459 11.50 510 790 0.09 -0.99 0.0000 0.0000
0.196 0 6.319707 -0.184604 6.231001 0.854492 -3.311157 2.380371 -187.70 -187.70 -11.5 -11.5 -0.576 -0.532 -112.6891 -112.6891 -0.3818 0.0078 -0.059696 -0.537399 11.50 480 750 0.09 -0.99 0.0000 0.0000
0.197 0 2.078598 -0.222964 8.086636 -1.670837 -0.885010 -0.724792 -188.66 -188.66 -11.5 -11.5 -0.583 -0.538 -104.0207 -112.6891 -0.3849 0.0080 -0.057101 -0.537131 11.50 490 760 0.09 -0.99 0.0000 0.0000
0.198 0 0.944600 1.882007 12.548310 -4.608154 4.737854 2.052307 -189.61 -189.61 -11.5 -11.5 -0.595 -0.519 -112.6891 -112.6891 -0.3879 0.0082 -0.059696 -0.529696 11.50 490 760 0.09 -0.99 0.0000 0.0000
0.199 0 2.910517 2.670771 9.997412 -1.785278 5.165100 1.731873 -190.56 -190.56 -11.5 -11.5 -0.595 -0.507 -112.6891 -112.6891 -0.3907 0.0083 -0.059696 -0.522670 11.50 490 750 0.09 -0.99 0.0000 0.0000
0.200 0 5.444633 -3.550640 5.590879 2.571106 1.091003 1.579285 -191.51 -191.51 -11.5 -11.5 -0.589 -0.526 -112.6891 -112.6891 -0.3939 0.0085 -0.059696 -0.522716 11.53 510 780 0.09 -0.99 0.0000 0.0000
0.201 0 8.460639 -1.882007 8.309599 3.128052 -2.159119 -1.571655 -192.47 -192.47 -11.5 -11.5 -0.595 -0.507 -112.6891 -112.6891 -0.3969 0.0087 -0.062292 -0.527885 11.53 490 750 0.09 -0.99 0.0000 0.0000
0.202 0 8.472627 -1.354565 10.155644 1.075745 -3.807068 -2.944946 -193.42 -193.42 -11.5 -11.5 -0.608 -0.494 -104.0207 -112.6891 -0.4001 0.0089 -0.062292 -0.532233 11.53 490 760 0.09 -0.99 0.0000 0.0000
0.203 0 4.013350 -1.313809 6.751250 -2.998352 -4.440308 2.250671 -194.37 -194.37 -11.5 -11.5 -0.633 -0.494 -112.6891 -112.6891 -0.4029 0.0091 -0.062292 -0.533959 11.53 490 760 0.09 -0.99 0.0000 0.0000
0.204 0 2.620425 3.260547 10.383403 -6.515503 -0.122070 2.227783 -195.32 -195.32 -11.5 -11.5 -0.608 -0.488 -112.6891 -112.6891 -0.4059 0.0093 -0.064887 -0.531183 11.53 490 760 0.09 -0.99 0.0000 0.0000
0.205 0 1.311411 1.563144 11.994496 -5.767822 2.944946 -1.022339 -196.28 -196.28 -11.5 -11.5 -0.659 -0.526 -112.6891 -96.5907 -0.4092 0.0095 -0.064887 -0.524166 11.49 510 780 0.09 -0.99 0.0000 0.0000
0.206 0 2.939287 -2.759477 9.086377 -0.915527 2.716064 0.160217 -197.23 -197.23 -11.5 -11.5 -0.602 -0.481 -112.6891 -112.6891 -0.4120 0.0097 -0.064887 -0.517913 11.49 490 750 0.09 -0.99 0.0000 0.0000
0.207 0 7.475283 -1.052485 7.458501 2.616882 -0.564575 -2.120972 -198.18 -198.18 -11.5 -11.5 -0.564 -0.500 -112.6891 -112.6891 -0.4152 0.0099 -0.064887 -0.518524 11.49 490 750 0.09 -0.99 0.0000 0.0000
0.209 0 9.419623 -2.347114 5.506968 2.586365 -4.730225 0.282288 -199.13 -199.13 -11.5 -11.5 -0.589 -0.469 -112.6891 -112.6891 -0.4182 0.0101 -0.067483 -0.526404 11.49 490 1110 0.09 -0.99 0.0000 0.0000
0.209 0 6.806391 0.721636 6.314912 -2.632141 -4.341125 -2.952576 -200.09 -200.09 -11.5 -11.5 -0.589 -0.481 -112.6891 -112.6891 -0.4216 0.0103 -0.064887 -0.534519 11.49 480 760 0.09 -0.99 0.0000 0.0000
0.210 0 1.229897 2.150522 9.333315 -4.875183 -1.892090 -3.837585 -201.04 -201.04 -11.6 -11.6 -0.589 -0.481 -112.6891 -112.6891 -0.4242 0.0105 -0.067483 -0.533433 11.56 510 780 0.09 -0.99 0.0000 0.0000
0.211 0 0.333247 -0.352427 12.284590 -4.280090 4.081726 -1.350403 -201.99 -201.99 -11.6 -11.6 -0.570 -0.526 -104.0207 -112.6891 -0.4274 0.0107 -0.067483 -0.524417 11.56 490 760 0.09 -0.99 0.0000 0.0000
0.212 0 2.476577 0.263721 10.719048 -1.602173 4.661560 -3.189087 -202.95 -202.95 -11.6 -11.6 -0.576 -0.475 -112.6891 -112.6891 -0.4304 0.0109 -0.070078 -0.516473 11.56 490 760 0.09 -0.99 0.0000 0.0000
0.213 0 7.329038 -1.191538 8.616474 0.625610 1.358032 -2.189636 -203.90 -203.90 -11.6 -11.6 -0.538 -0.526 -112.6891 -112.6891 -0.4334 0.0111 -0.067483 -0.515421 11.56 490 770 0.09 -0.99 0.0000 0.0000
0.214 0 10.965986 -2.200869 7.571181 0.900269 -3.074646 -1.632690 -204.85 -204.85 -11.6 -11.6 -0.564 -0.507 -112.6891 -112.6891 -0.4364 0.0113 -0.070078 -0.521777 11.56 490 770 0.09 -0.99 0.0000 0.0000
0.215 0 7.549604 -0.206182 5.065835 -2.166748 -5.485535 0.572205 -205.80 -205.80 -11.6 -11.6 -0.538 -0.475 -104.0207 -112.6891 -0.4397 0.0116 -0.070078 -0.530789 11.60 510 780 0.09 -0.99 0.0000 0.0000
0.216 0 2.634809 0.402773 8.542153 -1.869202 -2.647400 -2.578735 -206.76 -206.76 -11.6 -11.6 -0.589 -0.462 -112.6891 -112.6891 -0.4427 0.0118 -0.072674 -0.533012 11.60 490 760 0.09 -0.99 0.0000 0.0000
0.217 0 0.623340 -1.349770 13.135688 -2.708435 3.326416 2.624512 -207.71 -207.71 -11.6 -11.6 -0.564 -0.526 -112.6891 -112.6891 -0.4455 0.0120 -0.072674 -0.525883 11.60 490 750 0.09 -0.99 0.0000 0.0000
0.218 0 2.428628 3.095122 10.855702 -3.280640 5.882263 3.654480 -208.66 -208.66 -11.6 -11.6 -0.602 -0.488 -112.6891 -112.6891 -0.4487 0.0122 -0.072674 -0.518039 11.60 490 750 0.09 -0.99 0.0000 0.0000
0.219 0 4.377764 -0.364414 6.168667 -1.853943 3.242493 -1.281738 -209.61 -209.61 -11.6 -11.6 -0.589 -0.538 -112.6891 -112.6891 -0.4519 0.0124 -0.072674 -0.515992 11.60 490 760 0.09 -0.99 0.0000 0.0000
0.220 0 8.276035 -2.193677 8.477422 1.319885 -0.488281 1.182556 -210.57 -210.57 -11.6 -11.6 -0.621 -0.513 -112.6891 -112.6891 -0.4549 0.0127 -0.075269 -0.519518 11.56 510 780 0.09 -0.99 0.0000 0.0000
0.221 0 9.177480 -1.330591 9.119941 0.595093 -3.273010 8.247375 -211.52 -211.52 -11.6 -11.6 -0.583 -0.513 -112.6891 -112.6891 -0.4577 0.0129 -0.075269 -0.524728 11.56 490 750 0.09 -0.99 0.0000 0.0000
0.222 0 5.528545 -0.014385 6.178257 -2.525330 -4.226685 7.263184 -212.47 -212.47 -11.6 -11.6 -0.576 -0.507 -112.6891 -112.6891 -0.4609 0.0131 -0.075269 -0.529437 11.56 490 760 0.09 -0.99 0.0000 0.0000
0.223 0 1.203525 1.265859 8.158559 -6.217957 -1.945496 2.792358 -213.42 -213.42 -11.6 -11.6 -0.551 -0.532 -112.6891 -112.6891 -0.4639 0.0133 -0.077865 -0.527683 11.56 490 760 0.09 -0.99 0.0000 0.0000
0.224 0 -0.395581 1.961123 14.149814 -6.416321 5.279541 -0.640869 -214.38 -214.38 -11.6 -11.6 -0.564 -0.488 -112.6891 -112.6891 -0.4671 0.0136 -0.077865 -0.518379 11.56 490 760 0.09 -0.99 0.0000 0.0000
0.225 0 2.812222 -1.872417 10.613559 -0.999451 6.668091 -1.998901 -215.33 -215.33 -11.5 -11.5 -0.583 -0.507 -112.6891 -112.6891 -0.4703 0.0138 -0.077865 -0.510298 11.50 510 780 0.09 -0.99 0.0000 0.0000
0.226 0 8.774707 -0.220566 6.465952 2.418518 1.846313 -6.019592 -216.28 -216.28 -11.5 -11.5 -0.551 -0.488 -112.6891 -112.6891 -0.4732 0.0141 -0.077865 -0.511949 11.50 490 760 0.09 -0.99 0.0000 0.0000
0.227 0 11.181758 -1.388130 6.703300 2.120972 -4.486084 -7.476807 -217.23 -217.23 -11.5 -11.5 -0.564 -0.507 -104.0207 -112.6891 -0.4764 0.0143 -0.077865 -0.521305 11.50 490 770 0.09 -0.99 0.0000 0.0000
0.229 0 7.911621 0.580186 8.477422 -2.204895 -6.111145 -5.409241 -218.19 -218.19 -11.5 -11.5 -0.557 -0.475 -112.6891 -112.6891 -0.4794 0.0146 -0.080460 -0.528713 11.50 490 1100 0.09 -0.99 0.0000 0.0000
0.229 0 1.297026 1.685415 8.635654 -6.378174 -2.738953 0.541687 -219.14 -219.14 -11.5 -11.5 -0.564 -0.513 -112.6891 -112.6891 -0.4830 0.0148 -0.080460 -0.527231 11.50 480 750 0.09 -0.99 0.0000 0.0000
0.230 0 -1.735762 0.330850 11.929766 -5.249023 4.325867 3.425598 -220.09 -220.09 -11.6 -11.6 -0.519 -0.513 -112.6891 -112.6891 -0.4858 0.0151 -0.080460 -0.516822 11.56 510 780 0.09 -0.99 0.0000 0.0000
0.231 0 1.261064 -1.730967 10.632739 -1.953125 6.927490 -3.700256 -221.05 -221.05 -11.6 -11.6 -0.564 -0.443 -112.6891 -112.6891 -0.4886 0.0153 -0.080460 -0.506229 11.56 490 750 0.09 -0.99 0.0000 0.0000
0.232 0 8.647641 -1.567939 4.802114 1.266479 0.450134 -7.621765 -222.00 -222.00 -11.6 -11.6 -0.545 -0.462 -112.6891 -112.6891 -0.4916 0.0155 -0.083056 -0.507843 11.56 490 770 0.09 -0.99 0.0000 0.0000
0.233 0 12.306167 -0.923022 6.235795 2.388000 -5.706787 -7.987976 -222.95 -222.95 -11.6 -11.6 -0.595 -0.456 -112.6891 -112.6891 -0.4948 0.0158 -0.083056 -0.519275 11.56 490 760 0.09 -0.99 0.0000 0.0000
0.234 0 8.182534 0.994946 11.119424 -1.266479 -4.638672 -6.187439 -223.90 -223.90 -11.6 -11.6 -0.564 -0.481 -112.6891 -112.6891 -0.4980 0.0161 -0.083056 -0.526272 11.56 490 760 0.09 -0.99 0.0000 0.0000
0.235 0 0.342837 1.824468 8.230483 -5.622864 -2.677917 -0.686646 -224.86 -224.86 -11.6 -11.6 -0.595 -0.456 -112.6891 -112.6891 -0.5010 0.0163 -0.085651 -0.522607 11.56 510 780 0.09 -0.99 0.0000 0.0000
0.236 0 -0.302080 0.338042 9.676152 -5.722046 3.540039 -1.960754 -225.81 -225.81 -11.6 -11.6 -0.576 -0.469 -112.6891 -112.6891 -0.5040 0.0166 -0.083056 -0.512354 11.56 490 760 0.09 -0.99 0.0000 0.0000
0.237 0 2.435820 -0.685674 10.848511 -3.250122 4.409790 2.059937 -226.76 -226.76 -11.6 -11.6 -0.595 -0.450 -112.6891 -112.6891 -0.5070 0.0168 -0.085651 -0.504017 11.56 490 760 0.09 -0.99 0.0000 0.0000
0.238 0 5.852202 -0.728828 7.225947 0.740051 0.282288 6.301880 -227.71 -227.71 -11.6 -11.6 -0.545 -0.475 -112.6891 -112.6891 -0.5102 0.0171 -0.085651 -0.502923 11.56 490 760 0.09 -0.99 0.0000 0.0000
0.239 0 11.196142 -0.700059 9.479560 2.243042 -3.433228 0.679016 -228.67 -228.67 -11.6 -11.6 -0.551 -0.450 -112.6891 -112.6891 -0.5133 0.0174 -0.088246 -0.508328 11.56 490 770 0.09 -0.99 0.0000 0.0000
0.240 0 10.167631 -0.139053 9.115147 1.373291 -4.287720 -5.348206 -229.62 -229.62 -11.5 -11.5 -0.545 -0.456 -112.6891 -112.6891 -0.5165 0.0177 -0.088246 -0.515241 11.52 510 780 0.09 -0.99 0.0000 0.0000
0.241 0 2.385473 0.052744 5.576494 -0.961304 -6.141663 -5.889893 -230.57 -230.57 -11.5 -11.5 -0.564 -0.450 -112.6891 -112.6891 -0.5197 0.0179 -0.088246 -0.517447 11.52 490 750 0.09 -0.99 0.0000 0.0000
0.242 0 -0.218169 0.275708 11.212924 -3.562927 -0.175476 0.152588 -231.52 -231.52 -11.5 -11.5 -0.532 -0.462 -112.6891 -104.0207 -0.5227 0.0182 -0.090842 -0.511064 11.52 490 760 0.09 -0.99 0.0000 0.0000
0.243 0 0.028770 -0.445928 14.578959 -2.868652 7.865906 9.552002 -232.48 -232.48 -11.5 -11.5 -0.526 -0.462 -112.6891 -112.6891 -0.5259 0.0185 -0.090842 -0.500705 11.52 490 740 0.09 -0.99 0.0000 0.0000
0.244 0 4.128428 -1.349770 3.907861 0.061035 4.913330 8.338928 -233.43 -233.43 -11.5 -11.5 -0.570 -0.462 -112.6891 -112.6891 -0.5287 0.0188 -0.090842 -0.498747 11.52 490 760 0.09 -0.99 0.0000 0.0000
0.245 0 10.146054 -0.786367 5.058642 2.273560 -3.845215 3.982544 -234.38 -234.38 -11.6 -11.6 -0.532 -0.475 -112.6891 -112.6891 -0.5321 0.0191 -0.093437 -0.507882 11.56 510 790 0.09 -0.99 0.0000 0.0000
0.246 0 11.757148 1.026113 13.737451 1.625061 -5.073547 0.427246 -235.33 -235.33 -11.6 -11.6 -0.564 -0.443 -104.0207 -112.6891 -0.5351 0.0194 -0.090842 -0.515884 11.56 490 770 0.09 -0.99 0.0000 0.0000
0.247 0 4.452085 1.325796 8.321587 -0.511169 -5.020142 -0.907898 -236.29 -236.29 -11.6 -11.6 -0.507 -0.450 -112.6891 -112.6891 -0.5381 0.0196 -0.093437 -0.517628 11.56 490 770 0.09 -0.99 0.0000 0.0000
0.249 0 -0.558608 0.407568 5.454224 -3.097534 -3.616333 -1.296997 -237.24 -237.24 -11.6 -11.6 -0.538 -0.469 -112.6891 -112.6891 -0.5413 0.0199 -0.093437 -0.511306 11.56 500 1110 0.09 -0.99 0.0000 0.0000
0.249 0 -0.213374 0.124668 15.274223 -4.196167 7.133484 5.500793 -238.19 -238.19 -11.6 -11.6 -0.513 -0.456 -104.0207 -112.6891 -0.5449 0.0203 -0.093437 -0.500002 11.56 490 750 0.09 -0.99 0.0000 0.0000
0.250 0 3.797578 -0.067129 9.328520 -3.288269 7.110596 7.011414 -239.15 -239.15 -11.6 -11.6 -0.532 -0.475 -112.6891 -112.6891 -0.5475 0.0205 -0.096033 -0.493668 11.60 510 780 0.09 -0.99 0.0000 0.0000
0.251 0 8.398305 -0.958984 2.601245 -0.938416 -2.159119 5.386353 -240.10 -240.10 -11.6 -11.6 -0.519 -0.481 -112.6891 -112.6891 -0.5507 0.0208 -0.096033 -0.500255 11.60 490 760 0.09 -0.99 0.0000 0.0000
0.252 0 11.807495 -1.800493 9.529907 0.221252 -6.042480 -0.579834 -241.05 -241.05 -11.6 -11.6 -0.551 -0.443 -112.6891 -122.9336 -0.5539 0.0211 -0.096033 -0.511828 11.60 490 770 0.09 -0.99 0.0000 0.0000
0.253 0 5.653213 -0.661699 10.493686 -0.022888 -4.554749 -4.661560 -242.00 -242.00 -11.6 -11.6 -0.500 -0.437 -112.6891 -122.9336 -0.5567 0.0214 -0.096033 -0.515506 11.60 490 760 0.09 -0.99 0.0000 0.0000
0.254 0 0.882266 -0.887061 5.741919 -2.845764 -4.516602 -5.134583 -242.96 -242.96 -11.6 -11.6 -0.557 -0.507 -112.6891 -122.9336 -0.5599 0.0217 -0.096033 -0.511778 11.60 490 760 0.09 -0.99 0.0000 0.0000
0.255 0 0.016782 0.834316 12.910327 -5.386353 2.296448 -4.142761 -243.91 -243.91 -11.6 -11.6 -0.526 -0.450 -112.6891 -122.9336 -0.5631 0.0220 -0.096033 -0.503186 11.61 510 770 0.09 -0.99 0.0000 0.0000
0.256 0 3.121494 -0.534634 13.509692 -5.180359 6.752014 -3.044128 -244.86 -244.86 -11.6 -11.6 -0.570 -0.462 -112.6891 -122.9336 -0.5661 0.0223 -0.098628 -0.495405 11.61 490 760 0.09 -0.99 0.0000 0.0000
0.257 0 7.288281 -0.014385 3.008813 -2.105713 0.030518 -4.653931 -245.81 -245.81 -11.6 -11.6 -0.545 -0.481 -112.6891 -122.9336 -0.5693 0.0226 -0.098628 -0.499460 11.61 490 770 0.09 -0.99 0.0000 0.0000
0.258 0 10.119682 -0.853496 6.832764 0.701904 -5.928040 -8.956909 -246.77 -246.77 -11.6 -11.6 -0.557 -0.443 -112.6891 -122.9336 -0.5725 0.0230 -0.098628 -0.510969 11.61 490 750 0.09 -0.99 0.0000 0.0000
0.259 0 7.456103 -0.107886 12.581875 2.609253 -6.233215 -9.895325 -247.72 -247.72 -11.6 -11.6 -0.526 -0.456 -112.6891 -122.9336 -0.5755 0.0233 -0.101224 -0.515925 11.61 490 770 0.09 -0.99 0.0000 0.0000
0.260 0 1.177153 0.932612 6.950239 -2.746582 -4.661560 -3.143311 -248.67 -248.67 -11.5 -11.5 -0.532 -0.469 -112.6891 -122.9336 -0.5787 0.0236 -0.101224 -0.512761 11.53 510 780 0.09 -0.99 0.0000 0.0000
0.261 0 0.139053 2.210459 9.100761 -5.844116 2.494812 5.638123 -249.62 -249.62 -11.5 -11.5 -0.557 -0.443 -112.6891 -122.9336 -0.5817 0.0239 -0.103819 -0.504438 11.53 490 770 0.09 -0.99 0.0000 0.0000
0.262 0 2.447808 -4.363379 10.687881 -2.830505 5.844116 6.492615 -250.58 -250.58 -11.5 -11.5 -0.538 -0.481 -112.6891 -104.0207 -0.5849 0.0242 -0.103819 -0.496758 11.53 490 760 0.09 -0.99 0.0000 0.0000
0.263 0 6.048794 0.268516 6.415605 0.579834 0.991821 3.593445 -251.53 -251.53 -11.5 -11.5 -0.551 -0.456 -112.6891 -112.6891 -0.5881 0.0246 -0.103819 -0.496576 11.53 490 760 0.09 -0.99 0.0000 0.0000
0.264 0 10.781382 -0.973369 9.937475 2.571106 -2.273560 0.106812 -252.48 -252.48 -11.5 -11.5 -0.519 -0.456 -112.6891 -122.9336 -0.5911 0.0249 -0.101224 -0.502418 11.53 490 770 0.09 -0.99 0.0000 0.0000
0.265 0 7.468091 -0.407568 10.270722 0.556946 -4.081726 1.556396 -253.43 -253.43 -11.5 -11.5 -0.532 -0.437 -112.6891 -122.9336 -0.5941 0.0252 -0.103819 -0.506928 11.55 510 790 0.09 -0.99 0.0000 0.0000
0.266 0 4.138018 0.352427 5.506968 -3.311157 -6.690979 -2.479553 -254.39 -254.39 -11.5 -11.5 -0.519 -0.494 -112.6891 -122.9336 -0.5973 0.0255 -0.103819 -0.509588 11.55 490 760 0.09 -0.99 0.0000 0.0000
0.267 0 1.472041 1.591914 12.447617 -6.729126 -1.777649 -5.882263 -255.34 -255.34 -11.5 -11.5 -0.538 -0.475 -112.6891 -122.9336 -0.6003 0.0258 -0.106415 -0.507116 11.55 490 760 0.09 -0.99 0.0000 0.0000
0.269 0 1.229897 -3.025596 14.077890 -5.325317 4.844666 -5.958557 -256.29 -256.29 -11.5 -11.5 -0.526 -0.456 -112.6891 -122.9336 -0.6035 0.0262 -0.106415 -0.499076 11.55 490 1100 0.09 -0.99 0.0000 0.0000
0.269 0 3.507485 1.006934 4.193159 -2.586365 1.556396 -7.545471 -257.25 -257.25 -11.5 -11.5 -0.500 -0.437 -112.6891 -122.9336 -0.6071 0.0265 -0.106415 -0.496897 11.55 500 770 0.09 -0.99 0.0000 0.0000
0.270 0 9.422021 -1.647056 4.957949 -0.579834 -2.792358 -10.185242 -258.20 -258.20 -11.6 -11.6 -0.500 -0.469 -112.6891 -122.9336 -0.6099 0.0268 -0.106415 -0.504722 11.58 510 790 0.09 -0.99 0.0000 0.0000
0.271 0 9.163095 -0.700059 11.848251 -0.480652 -4.783630 -5.821228 -259.15 -259.15 -11.6 -11.6 -0.519 -0.481 -112.6891 -122.9336 -0.6129 0.0272 -0.109010 -0.512067 11.58 490 770 0.09 -0.99 0.0000 0.0000
0.272 0 4.097260 0.980561 6.312514 -4.104614 -5.310059 -1.113892 -260.10 -260.10 -11.6 -11.6 -0.475 -0.488 -112.6891 -122.9336 -0.6161 0.0275 -0.109010 -0.514232 11.58 490 770 0.09 -0.99 0.0000 0.0000
0.273 0 2.037842 1.522388 7.796543 -7.476807 -2.578735 -4.051208 -261.06 -261.06 -11.6 -11.6 -0.519 -0.424 -112.6891 -122.9336 -0.6193 0.0279 -0.109010 -0.512349 11.58 500 770 0.09 -0.99 0.0000 0.0000
0.274 0 0.656904 -1.119614 14.262495 -7.446289 3.952026 -3.860474 -262.01 -262.01 -11.6 -11.6 -0.519 -0.481 -112.6891 -122.9336 -0.6225 0.0282 -0.109010 -0.505179 11.58 490 760 0.09 -0.99 0.0000 0.0000
0.275 0 2.975249 0.256528 8.868208 -4.852295 4.821777 1.358032 -262.96 -262.96 -11.6 -11.6 -0.526 -0.462 -112.6891 -122.9336 -0.6255 0.0286 -0.111606 -0.498760 11.60 510 780 0.09 -0.99 0.0000 0.0000
0.276 0 8.626064 -1.364155 5.576494 -1.182556 -0.076294 9.735107 -263.91 -263.91 -11.6 -11.6 -0.507 -0.456 -112.6891 -122.9336 -0.6287 0.0289 -0.111606 -0.501918 11.60 490 770 0.09 -0.99 0.0000 0.0000
0.277 0 10.505673 0.136655 9.448393 1.564026 -5.126953 5.409241 -264.87 -264.87 -11.6 -11.6 -0.526 -0.462 -112.6891 -122.9336 -0.6319 0.0293 -0.111606 -0.510194 11.60 490 770 0.09 -0.99 0.0000 0.0000
0.278 0 6.202231 -0.649712 9.227827 -0.801086 -5.767822 -3.906250 -265.82 -265.82 -11.6 -11.6 -0.500 -0.507 -112.6891 -122.9336 -0.6347 0.0296 -0.111606 -0.514345 11.60 490 760 0.09 -0.99 0.0000 0.0000
0.279 0 0.505864 1.145986 6.715288 -4.577637 -2.365112 -7.186890 -266.77 -266.77 -11.6 -11.6 -0.526 -0.443 -112.6891 -122.9336 -0.6379 0.0299 -0.111606 -0.510834 11.60 490 760 0.09 -0.99 0.0000 0.0000
0.280 0 -0.239746 -2.622822 12.521938 -4.707336 5.126953 -2.655029 -267.72 -267.72 -11.6 -11.6 -0.513 -0.469 -112.6891 -122.9336 -0.6413 0.0303 -0.114201 -0.501249 11.61 510 780 0.09 -0.99 0.0000 0.0000
0.281 0 3.087929 -1.026113 8.942529 -2.723694 5.989075 1.075745 -268.68 -268.68 -11.6 -11.6 -0.557 -0.456 -112.6891 -122.9336 -0.6443 0.0307 -0.111606 -0.494330 11.61 490 760 0.09 -0.99 0.0000 0.0000
0.282 0 9.110352 -1.987495 4.711010 1.754761 -2.052307 -0.320435 -269.63 -269.63 -11.6 -11.6 -0.526 -0.500 -112.6891 -122.9336 -0.6473 0.0310 -0.114201 -0.498627 11.61 490 770 0.09 -0.99 0.0000 0.0000
0.283 0 10.898857 2.733105 9.834385 1.464844 -5.691528 -5.790710 -270.58 -270.58 -11.6 -11.6 -0.532 -0.450 -112.6891 -122.9336 -0.6505 0.0314 -0.114201 -0.507931 11.61 500 770 0.09 -0.99 0.0000 0.0000
0.284 0 6.298130 2.378281 12.035254 -0.450134 -4.478455 -5.180359 -271.53 -271.53 -11.6 -11.6 -0.513 -0.500 -112.6891 -122.9336 -0.6537 0.0317 -0.114201 -0.511018 11.61 490 770 0.09 -0.99 0.0000 0.0000
0.285 0 0.738418 1.392925 7.158818 -4.440308 -3.051758 1.205444 -272.49 -272.49 -11.6 -11.6 -0.519 -0.450 -112.6891 -122.9336 -0.6569 0.0321 -0.114201 -0.506755 11.61 510 780 0.09 -0.99 0.0000 0.0000
0.286 0 0.215771 -1.987495 11.658853 -4.447937 3.097534 -0.381470 -273.44 -273.44 -11.6 -11.6 -0.526 -0.481 -112.6891 -122.9336 -0.6599 0.0325 -0.116797 -0.497921 11.61 490 760 0.09 -0.99 0.0000 0.0000
0.287 0 3.073545 0.875073 9.304545 -3.509521 5.096436 -4.150391 -274.39 -274.39 -11.6 -11.6 -0.526 -0.469 -112.6891 -122.9336 -0.6631 0.0328 -0.116797 -0.491333 11.61 490 760 0.09 -0.99 0.0000 0.0000
0.289 0 7.288281 -0.783970 3.445151 -0.335693 -1.319885 -2.311707 -275.35 -275.35 -11.6 -11.6 -0.545 -0.462 -112.6891 -122.9336 -0.6663 0.0332 -0.116797 -0.495910 11.61 490 1120 0.09 -0.99 0.0000 0.0000
0.289 0 10.138862 0.843906 9.381265 0.679016 -4.898071 -1.647949 -276.30 -276.30 -11.6 -11.6 -0.532 -0.412 -112.6891 -122.9336 -0.6699 0.0336 -0.116797 -0.505484 11.61 490 770 0.09 -0.99 0.0000 0.0000
0.290 0 6.643364 0.383594 12.617837 0.419617 -2.433777 -8.392334 -277.25 -277.25 -11.5 -11.5 -0.538 -0.469 -112.6891 -122.9336 -0.6725 0.0339 -0.119392 -0.508497 11.52 520 800 0.09 -0.99 0.0000 0.0000
0.291 0 1.361758 -0.184604 6.154282 -2.540588 -3.349304 -4.798889 -278.20 -278.20 -11.5 -11.5 -0.494 -0.469 -112.6891 -122.9336 -0.6757 0.0343 -0.119392 -0.505432 11.52 490 760 0.09 -0.99 0.0000 0.0000
0.292 0 1.783711 -2.018662 10.901255 -3.982544 1.197815 -3.280640 -279.16 -279.16 -11.5 -11.5 -0.532 -0.456 -112.6891 -122.9336 -0.6789 0.0347 -0.119392 -0.499204 11.52 490 760 0.09 -0.99 0.0000 0.0000
0.293 0 3.584204 -0.227759 10.841318 -4.089355 4.707336 -2.792358 -280.11 -280.11 -11.5 -11.5 -0.526 -0.469 -112.6891 -122.9336 -0.6819 0.0351 -0.121988 -0.494034 11.52 490 770 0.09 -0.99 0.0000 0.0000
0.294 0 6.343681 0.445928 4.337007 -0.846863 1.190186 -1.281738 -281.06 -281.06 -11.5 -11.5 -0.519 -0.475 -122.9336 -122.9336 -0.6851 0.0355 -0.121988 -0.496977 11.52 490 750 0.09 -0.99 0.0000 0.0000
0.295 0 7.587964 1.455259 8.405498 1.556396 -2.357483 -1.358032 -282.01 -282.01 -11.5 -11.5 -0.507 -0.450 -122.9336 -122.9336 -0.6883 0.0358 -0.121988 -0.504031 11.55 510 780 0.09 -0.99 0.0000 0.0000
0.296 0 6.650557 1.074062 12.603452 1.350403 -2.853394 -1.403809 -282.97 -282.97 -11.5 -11.5 -0.532 -0.500 -122.9336 -122.9336 -0.6915 0.0362 -0.121988 -0.506173 11.55 490 760 0.09 -0.99 0.0000 0.0000
0.297 0 3.605781 -0.999741 7.899633 -0.038147 -1.991272 -4.035950 -283.92 -283.92 -11.5 -11.5 -0.507 -0.456 -122.9336 -122.9336 -0.6945 0.0366 -0.124583 -0.505239 11.55 490 770 0.09 -0.99 0.0000 0.0000
0.298 0 1.611094 -1.371348 8.633257 -1.190186 1.663208 -0.022888 -284.87 -284.87 -11.5 -11.5 -0.500 -0.481 -122.9336 -122.9336 -0.6977 0.0370 -0.124583 -0.501303 11.55 490 760 0.09 -0.99 0.0000 0.0000
0.299 0 2.092983 0.695264 8.760322 -2.662659 5.119324 7.095337 -285.82 -285.82 -11.5 -11.5 -0.532 -0.437 -122.9336 -122.9336 -0.7009 0.0374 -0.124583 -0.495467 11.55 490 760 0.09 -0.99 0.0000 0.0000
0.300 0 4.370571 1.793301 6.818379 -2.868652 4.425049 7.972717 -286.78 -286.78 -11.6 -11.6 -0.513 -0.450 -122.9336 -122.9336 -0.7040 0.0378 -0.124583 -0.493539 11.61 510 790 0.09 -0.99 0.0000 0.0000
0.301 0 8.676411 1.181948 9.431611 0.030518 1.205444 7.514954 -287.73 -287.73 -11.6 -11.6 -0.500 -0.450 -122.9336 -112.6891 -0.7070 0.0382 -0.127179 -0.496724 11.61 490 770 0.09 -0.99 0.0000 0.0000
0.302 0 8.379126 -1.697402 10.033374 2.906799 -1.060486 6.835938 -288.68 -288.68 -11.6 -11.6 -0.526 -0.475 -122.9336 -122.9336 -0.7102 0.0386 -0.127179 -0.501139 11.61 490 770 0.09 -0.99 0.0000 0.0000
0.303 0 3.895874 -0.234951 8.395908 3.021240 -2.159119 3.509521 -289.63 -289.63 -11.6 -11.6 -0.488 -0.443 -122.9336 -112.6891 -0.7134 0.0390 -0.127179 -0.502434 11.61 490 760 0.09 -0.99 0.0000 0.0000
0.304 0 2.150522 -1.582324 10.316274 0.328064 0.709534 5.462646 -290.59 -290.59 -11.6 -11.6 -0.513 -0.475 -122.9336 -122.9336 -0.7166 0.0394 -0.127179 -0.498834 11.61 490 750 0.09 -0.99 0.0000 0.0000
0.305 0 2.188882 -0.141450 11.402324 -1.922607 5.340576 4.905701 -291.54 -291.54 -11.6 -11.6 -0.494 -0.469 -122.9336 -122.9336 -0.7198 0.0398 -0.127179 -0.492816 11.63 510 780 0.09 -0.99 0.0000 0.0000
0.306 0 4.569561 1.239487 6.269360 -1.838684 4.180908 17.425537 -292.49 -292.49 -11.6 -11.6 -0.532 -0.462 -122.9336 -112.6891 -0.7228 0.0402 -0.129774 -0.491089 11.63 490 770 0.09 -0.99 0.0000 0.0000
0.307 0 7.460898 0.457915 6.959829 0.144958 -0.808716 21.697998 -293.45 -293.45 -11.6 -11.6 -0.488 -0.437 -122.9336 -122.9336 -0.7258 0.0406 -0.127179 -0.495692 11.63 490 770 0.09 -0.99 0.0000 0.0000
0.309 0 7.626323 1.781313 10.582393 2.166748 -2.212524 11.093140 -294.40 -294.40 -11.6 -11.6 -0.500 -0.469 -112.6891 -122.9336 -0.7292 0.0410 -0.129774 -0.500205 11.63 490 1110 0.09 -0.99 0.0000 0.0000
0.309 0 3.747231 -1.956328 9.889526 2.891541 -1.289368 -0.717163 -295.35 -295.35 -11.6 -11.6 -0.469 -0.450 -122.9336 -112.6891 -0.7328 0.0415 -0.129774 -0.500099 11.63 490 760 0.09 -0.99 0.0000 0.0000
0.310 0 2.584463 -2.076201 8.964107 1.457214 1.380920 0.061035 -296.30 -296.30 -11.5 -11.5 -0.507 -0.481 -122.9336 -122.9336 -0.7354 0.0418 -0.132370 -0.496560 11.53 510 780 0.09 -0.99 0.0000 0.0000
0.311 0 2.613232 0.429145 9.016850 -0.740051 4.180908 8.178711 -297.26 -297.26 -11.5 -11.5 -0.481 -0.443 -122.9336 -122.9336 -0.7386 0.0423 -0.132370 -0.492252 11.53 490 750 0.09 -0.99 0.0000 0.0000
0.312 0 4.128428 1.086050 6.856738 -1.380920 3.448486 10.826111 -298.21 -298.21 -11.5 -11.5 -0.494 -0.462 -122.9336 -112.6891 -0.7417 0.0427 -0.132370 -0.490597 11.53 490 770 0.09 -0.99 0.0000 0.0000
0.313 0 7.007778 2.450205 9.335712 -1.152039 1.335144 10.864258 -299.16 -299.16 -11.5 -11.5 -0.507 -0.431 -122.9336 -122.9336 -0.7449 0.0431 -0.132370 -0.492582 11.53 490 760 0.09 -0.99 0.0000 0.0000
0.314 0 7.118061 0.748008 10.385800 -0.808716 -0.572205 5.729675 -300.11 -300.11 -11.5 -11.5 -0.519 -0.475 -122.9336 -122.9336 -0.7479 0.0435 -0.134965 -0.495146 11.53 490 770 0.09 -0.99 0.0000 0.0000
0.315 0 4.658267 -1.615889 8.642846 -0.900269 -1.419067 2.029419 -301.07 -301.07 -11.6 -11.6 -0.513 -0.437 -122.9336 -122.9336 -0.7511 0.0440 -0.134965 -0.496201 11.64 510 790 0.09 -0.99 0.0000 0.0000
0.316 0 3.310894 -2.819414 6.163872 -0.961304 -0.152588 6.225586 -302.02 -302.02 -11.6 -11.6 -0.513 -0.456 -122.9336 -122.9336 -0.7543 0.0444 -0.134965 -0.496164 11.64 490 770 0.09 -0.99 0.0000 0.0000
0.317 0 2.519731 -1.582324 7.842094 -0.617981 2.807617 4.524231 -302.97 -302.97 -11.6 -11.6 -0.494 -0.456 -112.6891 -122.9336 -0.7575 0.0448 -0.134965 -0.494274 11.64 490 760 0.09 -0.99 0.0000 0.0000
0.318 0 3.596191 0.472300 10.170029 -1.113892 4.562378 3.898621 -303.92 -303.92 -11.6 -11.6 -0.532 -0.475 -122.9336 -112.6891 -0.7607 0.0453 -0.134965 -0.490866 11.64 490 760 0.09 -0.99 0.0000 0.0000
0.319 0 6.770430 1.985098 11.181758 -0.976562 2.548218 6.622314 -304.88 -304.88 -11.6 -11.6 -0.488 -0.443 -122.9336 -112.6891 -0.7637 0.0457 -0.137561 -0.489840 11.64 490 770 0.09 -0.99 0.0000 0.0000
0.320 0 7.465693 1.651851 8.084238 -0.778198 -1.182556 -0.061035 -305.83 -305.83 -11.6 -11.6 -0.513 -0.469 -122.9336 -122.9336 -0.7669 0.0461 -0.137561 -0.492902 11.56 510 790 0.09 -0.99 0.0000 0.0000
0.321 0 4.996308 -1.742954 7.326641 0.930786 -2.967834 -5.294800 -306.78 -306.78 -11.6 -11.6 -0.507 -0.437 -122.9336 -112.6891 -0.7701 0.0465 -0.137561 -0.496486 11.56 490 770 0.09 -0.99 0.0000 0.0000
0.322 0 3.320483 -2.474180 9.064799 0.892639 -0.350952 -1.869202 -307.74 -307.74 -11.6 -11.6 -0.526 -0.488 -112.6891 -122.9336 -0.7732 0.0470 -0.137561 -0.496085 11.56 490 760 0.09 -0.99 0.0000 0.0000
0.323 0 2.069009 -0.994946 9.987822 -0.823975 3.128052 4.432678 -308.69 -308.69 -11.6 -11.6 -0.513 -0.456 -122.9336 -122.9336 -0.7762 0.0474 -0.140156 -0.491737 11.56 490 760 0.09 -0.99 0.0000 0.0000
0.324 0 3.198213 0.057539 5.972075 -1.609802 2.380371 6.393433 -309.64 -309.64 -11.6 -11.6 -0.532 -0.462 -122.9336 -122.9336 -0.7794 0.0479 -0.140156 -0.488842 11.56 490 760 0.09 -0.99 0.0000 0.0000
0.325 0 6.739263 1.148384 9.436406 -1.335144 1.556396 5.836487 -310.59 -310.59 -11.6 -11.6 -0.500 -0.424 -122.9336 -122.9336 -0.7826 0.0483 -0.140156 -0.490136 11.61 510 780 0.09 -0.99 0.0000 0.0000
0.326 0 6.943047 2.191279 10.117285 -1.472473 -1.411438 0.968933 -311.55 -311.55 -11.6 -11.6 -0.532 -0.481 -122.9336 -122.9336 -0.7858 0.0488 -0.140156 -0.492524 11.61 490 760 0.09 -0.99 0.0000 0.0000
0.327 0 5.423057 -2.354306 9.908706 0.534058 -1.968384 -2.296448 -312.50 -312.50 -11.6 -11.6 -0.532 -0.405 -104.0207 -122.9336 -0.7890 0.0492 -0.140156 -0.493714 11.61 490 770 0.09 -0.99 0.0000 0.0000
0.329 0 4.535996 -0.668892 8.139380 -0.366211 -1.121521 -3.005981 -313.45 -313.45 -11.6 -11.6 -0.488 -0.443 -122.9336 -122.9336 -0.7922 0.0497 -0.140156 -0.493956 11.61 490 1100 0.09 -0.99 0.0000 0.0000
0.329 0 2.558091 -0.855894 7.444116 -2.967834 1.121521 3.883362 -314.40 -314.40 -11.6 -11.6 -0.526 -0.431 -122.9336 -122.9336 -0.7955 0.0501 -0.142752 -0.492486 11.61 490 760 0.09 -0.99 0.0000 0.0000
0.330 0 3.020801 -0.290093 7.585566 -4.470825 2.334595 10.597229 -315.36 -315.36 -11.5 -11.5 -0.500 -0.475 -122.9336 -122.9336 -0.7983 0.0505 -0.142752 -0.489733 11.53 510 780 0.09 -0.99 0.0000 0.0000
0.331 0 5.248042 0.503467 10.915639 -1.960754 1.693726 6.317139 -316.31 -316.31 -11.5 -11.5 -0.513 -0.450 -122.9336 -122.9336 -0.8015 0.0510 -0.142752 -0.488190 11.53 490 760 0.09 -0.99 0.0000 0.0000
0.332 0 6.923867 0.208579 9.668960 -0.144958 -0.442505 -6.790161 -317.26 -317.26 -11.5 -11.5 -0.513 -0.481 -122.9336 -122.9336 -0.8047 0.0515 -0.142752 -0.489102 11.53 490 770 0.09 -0.99 0.0000 0.0000
0.333 0 6.144692 -0.527441 7.698247 -0.022888 -1.640320 -7.469177 -318.21 -318.21 -11.5 -11.5 -0.494 -0.418 -112.6891 -122.9336 -0.8079 0.0519 -0.142752 -0.492257 11.53 500 780 0.09 -0.99 0.0000 0.0000
0.334 0 4.116440 -1.735762 8.467832 -3.074646 -0.633240 -2.830505 -319.17 -319.17 -11.5 -11.5 -0.475 -0.469 -122.9336 -122.9336 -0.8109 0.0523 -0.145347 -0.493679 11.53 490 760 0.09 -0.99 0.0000 0.0000
0.335 0 2.704336 -0.688071 10.359428 -5.058289 1.571655 4.371643 -320.12 -320.12 -11.6 -11.6 -0.500 -0.450 -122.9336 -122.9336 -0.8141 0.0528 -0.145347 -0.490904 11.61 510 780 0.09 -0.99 0.0000 0.0000
0.336 0 3.624961 -0.640122 7.753388 -4.226685 2.899170 1.449585 -321.07 -321.07 -11.6 -11.6 -0.481 -0.437 -122.9336 -122.9336 -0.8172 0.0533 -0.145347 -0.488002 11.61 490 770 0.09 -0.99 0.0000 0.0000
0.337 0 4.888422 0.429145 7.657490 -1.754761 0.740051 -2.212524 -322.02 -322.02 -11.6 -11.6 -0.488 -0.424 -122.9336 -122.9336 -0.8204 0.0537 -0.145347 -0.488263 11.61 490 760 0.09 -0.99 0.0000 0.0000
0.338 0 6.504311 2.112163 11.011538 -1.007080 -0.915527 0.854492 -322.98 -322.98 -11.6 -11.6 -0.443 -0.488 -122.9336 -122.9336 -0.8236 0.0542 -0.145347 -0.489504 11.61 490 760 0.09 -0.99 0.0000 0.0000
0.339 0 5.902549 -0.561006 10.064541 -0.801086 -1.464844 1.281738 -323.93 -323.93 -11.6 -11.6 -0.494 -0.412 -122.9336 -122.9336 -0.8268 0.0547 -0.145347 -0.490365 11.61 490 760 0.09 -0.99 0.0000 0.0000
0.340 0 4.782934 -1.730967 7.017368 -3.379822 -1.136780 2.799988 -324.88 -324.88 -11.6 -11.6 -0.494 -0.443 -122.9336 -122.9336 -0.8298 0.0551 -0.147943 -0.491853 11.61 510 790 0.09 -0.99 0.0000 0.0000
0.341 0 3.972593 -1.026113 5.962485 -4.432678 -0.411987 8.331299 -325.84 -325.84 -11.6 -11.6 -0.519 -0.431 -122.9336 -122.9336 -0.8330 0.0556 -0.147943 -0.493869 11.61 490 760 0.09 -0.99 0.0000 0.0000
0.342 0 3.445151 0.175015 8.568525 -4.577637 0.289917 3.677368 -326.79 -326.79 -11.6 -11.6 -0.469 -0.437 -122.9336 -122.9336 -0.8362 0.0561 -0.147943 -0.493694 11.61 490 760 0.09 -0.99 0.0000 0.0000
0.343 0 4.025337 2.035444 11.615698 -2.517700 1.693726 -5.264282 -327.74 -327.74 -11.6 -11.6 -0.507 -0.412 -122.9336 -122.9336 -0.8393 0.0565 -0.147943 -0.490989 11.61 490 760 0.09 -0.99 0.0000 0.0000
0.344 0 5.945703 1.040498 10.572803 -1.350403 1.136780 -9.033203 -328.69 -328.69 -11.6 -11.6 -0.475 -0.469 -112.6891 -122.9336 -0.8425 0.0570 -0.147943 -0.489617 11.61 490 770 0.09 -0.99 0.0000 0.0000
0.345 0 5.737124 -1.496016 7.388974 1.007080 -0.877380 -0.885010 -329.65 -329.65 -11.6 -11.6 -0.507 -0.443 -122.9336 -122.9336 -0.8457 0.0575 -0.147943 -0.491528 11.63 510 790 0.09 -0.99 0.0000 0.0000
0.346 0 5.782676 -0.939805 7.218755 -0.770569 -0.770569 3.547668 -330.60 -330.60 -11.6 -11.6 -0.494 -0.475 -122.9336 -122.9336 -0.8487 0.0579 -0.150538 -0.495033 11.63 490 770 0.09 -0.99 0.0000 0.0000
0.347 0 4.001362 -1.651851 8.172944 -2.792358 0.282288 2.349854 -331.55 -331.55 -11.6 -11.6 -0.500 -0.475 -122.9336 -122.9336 -0.8519 0.0584 -0.150538 -0.496429 11.63 490 750 0.09 -0.99 0.0000 0.0000
0.349 0 3.056763 -0.618545 8.381523 -5.287170 1.579285 -1.914978 -332.50 -332.50 -11.6 -11.6 -0.456 -0.469 -122.9336 -122.9336 -0.8550 0.0589 -0.150538 -0.494553 11.63 490 1100 0.09 -0.99 0.0000 0.0000
0.349 0 4.265083 1.112422 10.042964 -3.211975 2.632141 -0.106812 -333.46 -333.46 -11.6 -11.6 -0.488 -0.424 -122.9336 -122.9336 -0.8586 0.0594 -0.150538 -0.492162 11.63 490 760 0.09 -0.99 0.0000 0.0000
0.350 0 5.065835 2.320742 10.755010 -2.105713 2.296448 -0.259399 -334.41 -334.41 -11.6 -11.6 -0.456 -0.475 -122.9336 -122.9336 -0.8614 0.0599 -0.150538 -0.490708 11.60 510 790 0.09 -0.99 0.0000 0.0000
0.351 0 5.624443 -1.129204 9.012055 0.022888 0.106812 -6.202698 -335.36 -335.36 -11.6 -11.6 -0.481 -0.418 -122.9336 -122.9336 -0.8644 0.0603 -0.153134 -0.490853 11.60 490 770 0.09 -0.99 0.0000 0.0000
0.352 0 6.995791 -1.052485 7.758183 -1.426697 -1.548767 -8.514404 -336.31 -336.31 -11.6 -11.6 -0.475 -0.469 -122.9336 -122.9336 -0.8676 0.0608 -0.153134 -0.493935 11.60 490 760 0.09 -0.99 0.0000 0.0000
0.353 0 4.960347 -0.903843 6.890303 -1.922607 -1.609802 -1.121521 -337.27 -337.27 -11.6 -11.6 -0.519 -0.450 -122.9336 -122.9336 -0.8708 0.0613 -0.153134 -0.497624 11.60 490 760 0.09 -0.99 0.0000 0.0000
0.354 0 3.020801 0.187002 8.769912 -4.158020 1.075745 2.555847 -338.22 -338.22 -11.6 -11.6 -0.469 -0.443 -122.9336 -122.9336 -0.8739 0.0618 -0.153134 -0.497237 11.60 490 750 0.09 -0.99 0.0000 0.0000
0.355 0 2.872158 2.677964 10.987563 -3.829956 2.563477 4.196167 -339.17 -339.17 -11.6 -11.6 -0.507 -0.412 -122.9336 -122.9336 -0.8773 0.0623 -0.155729 -0.493175 11.64 510 780 0.09 -0.99 0.0000 0.0000
0.356 0 4.730190 2.107368 9.462778 -3.799438 2.258301 2.517700 -340.12 -340.12 -11.6 -11.6 -0.450 -0.456 -112.6891 -122.9336 -0.8803 0.0628 -0.153134 -0.490489 11.64 490 760 0.09 -0.99 0.0000 0.0000
0.357 0 5.583686 -1.380937 8.177739 -0.831604 0.770569 2.502441 -341.08 -341.08 -11.6 -11.6 -0.513 -0.418 -122.9336 -122.9336 -0.8833 0.0632 -0.155729 -0.491271 11.64 490 760 0.09 -0.99 0.0000 0.0000
0.358 0 6.883110 -2.373486 9.026441 -0.328064 -0.190735 3.120422 -342.03 -342.03 -11.6 -11.6 -0.488 -0.456 -122.9336 -122.9336 -0.8867 0.0638 -0.158325 -0.493920 11.64 490 770 0.09 -0.99 0.0000 0.0000
0.359 0 5.514160 -1.651851 7.971557 -1.174927 -0.144958 4.409790 -342.98 -342.98 -11.6 -11.6 -0.513 -0.437 -122.9336 -112.6891 -0.8898 0.0643 -0.158325 -0.496584 11.64 490 770 0.09 -0.99 0.0000 0.0000
0.360 0 3.322881 1.287436 6.904687 -5.638123 0.572205 4.531860 -343.94 -343.94 -11.7 -11.7 -0.488 -0.431 -122.9336 -122.9336 -0.8930 0.0648 -0.158325 -0.497179 11.66 510 780 0.09 -0.99 0.0000 0.0000
0.361 0 3.123892 0.498672 8.849028 -3.509521 2.273560 1.365662 -344.89 -344.89 -11.7 -11.7 -0.532 -0.424 -122.9336 -112.6891 -0.8962 0.0653 -0.158325 -0.495111 11.66 490 760 0.09 -0.99 0.0000 0.0000
0.362 0 4.622304 1.304219 11.107436 -2.258301 3.318787 0.671387 -345.84 -345.84 -11.7 -11.7 -0.488 -0.469 -122.9336 -122.9336 -0.8994 0.0658 -0.158325 -0.492523 11.66 480 750 0.09 -0.99 0.0000 0.0000
0.363 0 5.420659 -1.666235 11.133808 1.693726 3.295898 1.411438 -346.79 -346.79 -11.7 -11.7 -0.519 -0.437 -122.9336 -122.9336 -0.9023 0.0663 -0.160920 -0.491103 11.66 490 760 0.09 -0.99 0.0000 0.0000
0.364 0 7.257114 -0.242144 9.436406 0.473022 1.319885 -1.586914 -347.75 -347.75 -11.7 -11.7 -0.507 -0.481 -122.9336 -122.9336 -0.9055 0.0668 -0.160920 -0.492315 11.66 490 760 0.09 -0.99 0.0000 0.0000
0.365 0 6.413208 -1.364155 6.643364 0.511169 -1.724243 -1.335144 -348.70 -348.70 -11.6 -11.6 -0.532 -0.462 -122.9336 -122.9336 -0.9087 0.0673 -0.160920 -0.496662 11.60 510 790 0.09 -0.99 0.0000 0.0000
0.366 0 4.581548 0.743213 5.979268 -2.761841 -2.052307 0.488281 -349.65 -349.65 -11.6 -11.6 -0.488 -0.437 -122.9336 -122.9336 -0.9119 0.0678 -0.160920 -0.500935 11.60 490 760 0.09 -0.99 0.0000 0.0000
0.367 0 1.757339 1.970713 9.556279 -3.440857 0.267029 1.167297 -350.60 -350.60 -11.6 -11.6 -0.545 -0.399 -122.9336 -122.9336 -0.9151 0.0684 -0.160920 -0.499305 11.60 490 760 0.09 -0.99 0.0000 0.0000
0.369 0 2.383076 2.073804 12.402065 -2.174377 4.486084 -0.579834 -351.56 -351.56 -11.6 -11.6 -0.519 -0.431 -122.9336 -122.9336 -0.9182 0.0689 -0.160920 -0.493057 11.60 490 1110 0.09 -0.99 0.0000 0.0000
0.369 0 4.574355 -0.937407 11.462260 1.312256 5.149841 -9.262085 -352.51 -352.51 -11.6 -11.6 -0.513 -0.405 -122.9336 -122.9336 -0.9218 0.0695 -0.160920 -0.488849 11.60 490 750 0.09 -0.99 0.0000 0.0000
0.370 0 8.237676 -1.376143 6.355669 1.296997 2.220154 -7.820129 -353.46 -353.46 -11.6 -11.6 -0.494 -0.437 -122.9336 -122.9336 -0.9244 0.0699 -0.163516 -0.491911 11.58 510 790 0.09 -0.99 0.0000 0.0000
0.371 0 6.353271 -2.323140 4.118838 0.343323 -1.663208 2.098083 -354.41 -354.41 -11.6 -11.6 -0.488 -0.437 -122.9336 -122.9336 -0.9276 0.0704 -0.163516 -0.501069 11.58 490 760 0.09 -0.99 0.0000 0.0000
0.372 0 4.881230 2.996826 7.679067 -4.272461 -2.326965 6.713867 -355.37 -355.37 -11.6 -11.6 -0.494 -0.450 -122.9336 -122.9336 -0.9307 0.0709 -0.163516 -0.506645 11.58 490 760 0.09 -0.99 0.0000 0.0000
0.373 0 3.538652 0.680879 12.025663 -4.837036 1.968384 8.613586 -356.32 -356.32 -11.6 -11.6 -0.475 -0.374 -122.9336 -122.9336 -0.9339 0.0714 -0.163516 -0.505055 11.58 490 750 0.09 -0.99 0.0000 0.0000
0.374 0 2.634809 -0.829521 11.150591 -1.586914 4.035950 8.552551 -357.27 -357.27 -11.6 -11.6 -0.469 -0.424 -122.9336 -122.9336 -0.9371 0.0720 -0.163516 -0.500133 11.58 490 750 0.09 -0.99 0.0000 0.0000
0.375 0 4.320224 1.203525 11.176963 0.816345 4.989624 4.379272 -358.22 -358.22 -11.6 -11.6 -0.456 -0.393 -122.9336 -122.9336 -0.9405 0.0725 -0.166111 -0.496101 11.60 510 780 0.09 -0.99 0.0000 0.0000
0.376 0 6.542671 -2.232036 7.705439 1.335144 2.388000 5.126953 -359.18 -359.18 -11.6 -11.6 -0.494 -0.469 -122.9336 -104.0207 -0.9434 0.0730 -0.168706 -0.496835 11.60 490 770 0.09 -0.99 0.0000 0.0000
0.377 0 7.765376 -2.793042 4.864448 1.121521 -1.068115 5.027771 -360.13 -360.13 -11.6 -11.6 -0.488 -0.418 -122.9336 -122.9336 -0.9466 0.0736 -0.168706 -0.503967 11.60 490 770 0.09 -0.99 0.0000 0.0000
0.378 0 4.305840 -0.851099 5.295991 -1.533508 -2.754211 1.052856 -361.08 -361.08 -11.6 -11.6 -0.475 -0.424 -122.9336 -122.9336 -0.9498 0.0741 -0.168706 -0.510791 11.60 490 760 0.09 -0.99 0.0000 0.0000
0.379 0 2.363896 1.145986 9.760063 -2.754211 -0.022888 -1.167297 -362.04 -362.04 -11.6 -11.6 -0.500 -0.418 -122.9336 -122.9336 -0.9530 0.0747 -0.168706 -0.509812 11.60 490 760 0.09 -0.99 0.0000 0.0000
0.380 0 2.522129 2.706733 14.303251 -3.402710 5.638123 4.814148 -362.99 -362.99 -11.6 -11.6 -0.481 -0.450 -122.9336 -122.9336 -0.9561 0.0752 -0.168706 -0.503749 11.64 510 780 0.09 -0.99 0.0000 0.0000
0.381 0 2.510142 1.510400 9.417226 -1.304626 5.714417 5.706787 -363.94 -363.94 -11.6 -11.6 -0.494 -0.393 -122.9336 -122.9336 -0.9593 0.0757 -0.168706 -0.497982 11.64 490 750 0.09 -0.99 0.0000 0.0000
0.382 0 6.964624 -1.112422 7.703042 -1.167297 3.860474 3.387451 -364.89 -364.89 -11.6 -11.6 -0.500 -0.443 -122.9336 -122.9336 -0.9625 0.0763 -0.168706 -0.497896 11.64 490 760 0.09 -0.99 0.0000 0.0000
0.383 0 9.930283 -1.599106 6.094346 -1.495361 -0.579834 3.234863 -365.85 -365.85 -11.6 -11.6 -0.469 -0.431 -122.9336 -122.9336 -0.9656 0.0768 -0.168706 -0.505389 11.64 490 770 0.09 -0.99 0.0000 0.0000
0.384 0 7.158818 -1.524785 8.041083 -2.548218 -2.944946 7.812500 -366.80 -366.80 -11.6 -11.6 -0.500 -0.443 -122.9336 -122.9336 -0.9686 0.0773 -0.171302 -0.512716 11.64 490 770 0.09 -0.99 0.0000 0.0000
0.385 0 0.527441 0.028770 10.539238 -2.700806 -1.922607 6.088257 -367.75 -367.75 -11.6 -11.6 -0.481 -0.393 -122.9336 -122.9336 -0.9720 0.0779 -0.168706 -0.510303 11.64 510 780 0.09 -0.99 0.0000 0.0000
0.386 0 0.376401 1.750146 14.276879 -3.082275 4.486084 -1.197815 -368.70 -368.70 -11.6 -11.6 -0.519 -0.443 -122.9336 -122.9336 -0.9750 0.0784 -0.171302 -0.500932 11.64 490 760 0.09 -0.99 0.0000 0.0000
0.387 0 2.905723 -0.249336 9.712114 -0.045776 7.949829 -5.516052 -369.66 -369.66 -11.6 -11.6 -0.469 -0.412 -122.9336 -122.9336 -0.9781 0.0790 -0.171302 -0.494044 11.64 490 750 0.09 -0.99 0.0000 0.0000
0.389 0 7.973955 -1.790903 2.745093 2.563477 3.318787 -5.599976 -370.61 -370.61 -11.6 -11.6 -0.519 -0.405 -122.9336 -122.9336 -0.9813 0.0795 -0.171302 -0.499311 11.64 490 1110 0.09 -0.99 0.0000 0.0000
0.389 0 9.937475 -1.635068 4.456880 2.838135 -5.226135 -4.013062 -371.56 -371.56 -11.6 -11.6 -0.462 -0.418 -122.9336 -122.9336 -0.9851 0.0802 -0.173897 -0.513089 11.64 490 770 0.09 -0.99 0.0000 0.0000
0.390 0 5.813843 -0.649712 11.172168 0.015259 -5.187988 0.312805 -372.51 -372.51 -11.6 -11.6 -0.481 -0.424 -122.9336 -112.6891 -0.9878 0.0807 -0.173897 -0.519147 11.64 510 790 0.09 -0.99 0.0000 0.0000
0.391 0 0.668892 0.083911 12.397270 -1.266479 0.686646 3.707886 -373.47 -373.47 -11.6 -11.6 -0.456 -0.399 -122.9336 -122.9336 -0.9908 0.0812 -0.171302 -0.514190 11.64 490 760 0.09 -0.99 0.0000 0.0000
0.392 0 0.390786 4.711010 13.617578 -4.234314 7.606506 -3.677368 -374.42 -374.42 -11.6 -11.6 -0.481 -0.450 -122.9336 -122.9336 -0.9940 0.0817 -0.176493 -0.504754 11.64 490 760 0.09 -0.99 0.0000 0.0000
0.393 0 3.960605 0.930215 5.315171 -0.663757 5.798340 -5.332947 -375.37 -375.37 -11.6 -11.6 -0.462 -0.412 -122.9336 -112.6891 -0.9972 0.0823 -0.176493 -0.501268 11.64 490 760 0.09 -0.99 0.0000 0.0000
0.394 0 10.721445 -2.773862 3.843130 1.884460 0.282288 -3.150940 -376.32 -376.32 -11.6 -11.6 -0.500 -0.424 -122.9336 -122.9336 -1.0003 0.0829 -0.176493 -0.509774 11.64 490 760 0.09 -0.99 0.0000 0.0000
0.395 0 8.803476 -4.236313 8.940131 1.907349 -3.379822 -2.174377 -377.28 -377.28 -11.6 -11.6 -0.488 -0.405 -122.9336 -122.9336 -1.0035 0.0834 -0.176493 -0.519551 11.64 510 780 0.09 -0.99 0.0000 0.0000
0.396 0 4.653471 2.174497 10.563212 -2.479553 -3.959656 -0.808716 -378.23 -378.23 -11.6 -11.6 -0.462 -0.424 -122.9336 -122.9336 -1.0067 0.0840 -0.176493 -0.521135 11.64 490 760 0.09 -0.99 0.0000 0.0000
0.397 0 0.292490 0.927817 8.086636 -3.425598 -2.143860 8.094788 -379.18 -379.18 -11.6 -11.6 -0.469 -0.399 -122.9336 -122.9336 -1.0098 0.0846 -0.176493 -0.515334 11.64 490 760 0.09 -0.99 0.0000 0.0000
0.398 0 0.508262 1.496016 11.711596 -3.143311 4.730225 2.609253 -380.14 -380.14 -11.6 -11.6 -0.488 -0.412 -112.6891 -122.9336 -1.0130 0.0851 -0.176493 -0.505895 11.64 490 760 0.09 -0.99 0.0000 0.0000
0.399 0 3.363638 -0.352427 8.717168 -0.236511 6.546021 -6.805420 -381.09 -381.09 -11.6 -11.6 -0.488 -0.393 -122.9336 -122.9336 -1.0162 0.0857 -0.176493 -0.499855 11.64 490 750 0.09 -0.99 0.0000 0.0000
0.400 0 8.477422 -0.913433 5.631636 1.464844 0.358582 -12.802124 -382.04 -382.04 -11.6 -11.6 -0.494 -0.412 -122.9336 -122.9336 -1.0193 0.0863 -0.176493 -0.503290 11.64 510 770 0.09 -0.99 0.0000 0.0000
0.401 0 10.908447 -2.936890 7.434526 2.510071 -5.134583 -13.710022 -382.99 -382.99 -11.6 -11.6 -0.456 -0.405 -122.9336 -122.9336 -1.0223 0.0868 -0.179088 -0.512742 11.64 490 760 0.09 -0.99 0.0000 0.0000
0.402 0 5.739522 0.429145 9.378867 -0.343323 -5.149841 -1.747131 -383.95 -383.95 -11.6 -11.6 -0.475 -0.412 -122.9336 -122.9336 -1.0255 0.0874 -0.179088 -0.517744 11.64 490 760 0.09 -0.99 0.0000 0.0000
0.403 0 -0.937407 0.019180 10.591982 -1.319885 -1.304626 4.638672 -384.90 -384.90 -11.6 -11.6 -0.481 -0.418 -122.9336 -122.9336 -1.0286 0.0879 -0.179088 -0.512111 11.64 490 750 0.09 -0.99 0.0000 0.0000
0.404 0 -0.338042 2.128945 12.277397 -2.548218 6.538391 2.044678 -385.85 -385.85 -11.6 -11.6 -0.488 -0.405 -122.9336 -122.9336 -1.0318 0.0885 -0.179088 -0.500778 11.64 490 750 0.09 -0.99 0.0000 0.0000
0.405 0 3.895874 0.668892 6.952637 -0.885010 6.752014 -0.747681 -386.80 -386.80 -11.6 -11.6 -0.469 -0.405 -122.9336 -122.9336 -1.0352 0.0891 -0.181684 -0.495531 11.63 510 790 0.09 -0.99 0.0000 0.0000
0.406 0 11.200937 -0.791162 7.966763 1.564026 -0.099182 -7.232666 -387.76 -387.76 -11.6 -11.6 -0.462 -0.399 -104.0207 -112.6891 -1.0383 0.0897 -0.181684 -0.500149 11.63 490 770 0.09 -0.99 0.0000 0.0000
0.407 0 10.270722 -4.272275 9.448393 3.028870 -4.501343 -5.744934 -388.71 -388.71 -11.6 -11.6 -0.450 -0.424 -122.9336 -122.9336 -1.0415 0.0903 -0.181684 -0.507905 11.63 490 770 0.09 -0.99 0.0000 0.0000
0.409 0 4.452085 -0.606558 7.103676 0.205994 -5.256653 -2.075195 -389.66 -389.66 -11.6 -11.6 -0.481 -0.418 -122.9336 -122.9336 -1.0447 0.0909 -0.181684 -0.511664 11.63 490 1100 0.09 -0.99 0.0000 0.0000
0.409 0 -0.026372 1.426489 7.846889 -3.250122 -3.234863 5.935669 -390.61 -390.61 -11.6 -11.6 -0.469 -0.399 -122.9336 -122.9336 -1.0480 0.0915 -0.184279 -0.507115 11.63 490 750 0.09 -0.99 0.0000 0.0000
0.410 0 -0.141450 3.536255 16.511312 -3.036499 5.348206 3.051758 -391.57 -391.57 -11.6 -11.6 -0.475 -0.405 -122.9336 -122.9336 -1.0508 0.0920 -0.184279 -0.496937 11.64 510 770 0.09 -0.99 0.0000 0.0000
0.411 0 2.805029 0.002397 5.880971 0.152588 6.393433 -3.166199 -392.52 -392.52 -11.6 -11.6 -0.450 -0.399 -122.9336 -122.9336 -1.0540 0.0926 -0.184279 -0.491316 11.64 490 760 0.09 -0.99 0.0000 0.0000
0.412 0 7.580771 0.278105 2.088188 1.907349 -0.610352 -8.522034 -393.47 -393.47 -11.6 -11.6 -0.494 -0.424 -122.9336 -122.9336 -1.0571 0.0932 -0.184279 -0.498835 11.64 490 760 0.09 -0.99 0.0000 0.0000
0.413 0 11.095448 -3.886284 10.970781 3.608704 -3.669739 -6.500244 -394.43 -394.43 -11.6 -11.6 -0.469 -0.431 -122.9336 -122.9336 -1.0603 0.0938 -0.184279 -0.509717 11.64 490 750 0.09 -0.99 0.0000 0.0000
0.414 0 8.012314 0.019180 10.455327 0.175476 -4.150391 -1.853943 -395.38 -395.38 -11.6 -11.6 -0.519 -0.437 -122.9336 -122.9336 -1.0635 0.0944 -0.184279 -0.513998 11.64 490 760 0.09 -0.99 0.0000 0.0000
