%  1    time 0.000 sec
%  2    mission (0) state 2
%  3  4  5 Acc x,y,z: 5.125772 0.752803 8.719565
%  6  7  8 Gyro x,y,z: -0.427246 0.358582 -0.823975
%  9 10 Motor velocity ref left, right: 0.07 0.07
% 11 12 Motor voltage [V] left, right: 0.8 0.8
% 13 14 Motor current left, right [A]: 0.000 0.006
% 15 16 Wheel velocity [r/s] left, right: 0.0000 0.0000
% 17 18 19 21 Pose x,y,h,tilt [m,m,rad,rad]: 0.0000 0.0000 0.000000 -0.526829
% 21    Battery voltage [V]: 11.91
% 22 23 Get data time [us]: 490 +ctrl 700
% 24 25 26 27 Extra pt.: balE[0], balU[0], balUI[0], balUI[1]: 0.09 -0.9862 0.0000 0.0000
0.001 2 5.061040 0.733623 8.573320 -0.427246 0.236511 -0.869751 0.13 0.13 0.8 0.8 0.000 -0.019 0.0000 0.0000 0.0000 0.0000 0.000000 -0.526933 11.93 510 740 0.09 -0.99 0.0000 0.0000
0.002 2 5.046655 0.688071 8.654834 -0.350952 0.381470 -0.831604 0.20 0.20 0.8 0.8 -0.006 0.006 0.0000 0.0000 0.0000 0.0000 0.000000 -0.527000 11.93 490 670 0.09 -0.99 0.0000 0.0000
0.003 2 5.087412 0.726431 8.657231 -0.221252 0.335693 -0.816345 0.27 0.27 0.8 0.8 0.025 -0.032 0.0000 0.0000 0.0000 0.0000 0.000000 -0.527045 11.93 490 670 0.09 -0.99 0.0000 0.0000
0.004 2 5.068232 0.757598 8.741142 -0.267029 0.259399 -0.701904 0.34 0.34 0.8 0.8 0.025 -0.032 0.0000 0.0000 0.0000 0.0000 0.000000 -0.527066 11.93 490 670 0.09 -0.99 0.0000 0.0000
0.005 2 5.118579 0.779175 8.645244 -0.343323 0.144958 -0.709534 0.40 0.40 0.8 0.8 0.006 -0.006 0.0000 0.0000 0.0000 0.0000 0.000000 -0.527121 11.93 490 670 0.09 -0.99 0.0000 0.0000
0.006 2 5.041860 0.769585 8.683603 -0.434875 0.114441 -0.770569 0.47 0.47 0.8 0.8 0.013 -0.013 0.0000 0.0000 0.0000 0.0000 0.000000 -0.527182 11.96 510 700 0.09 -0.99 0.0000 0.0000
0.007 2 5.080220 0.798354 8.662026 -0.350952 0.335693 -0.732422 0.54 0.54 0.8 0.8 0.006 -0.025 0.0000 0.0000 0.0000 0.0000 0.000000 -0.527199 11.96 490 670 0.09 -0.99 0.0000 0.0000
0.008 2 5.044258 0.774380 8.630859 -0.350952 0.396729 -0.648499 0.61 0.61 0.8 0.8 0.013 -0.013 0.0000 0.0000 0.0000 0.0000 0.000000 -0.527241 11.96 490 670 0.09 -0.99 0.0000 0.0000
0.009 2 4.967539 0.769585 8.662026 -0.480652 0.404358 -0.709534 0.67 0.67 0.8 0.8 0.000 -0.013 0.0000 0.0000 0.0000 0.0000 0.000000 -0.527186 11.96 490 670 0.09 -0.99 0.0000 0.0000
0.010 2 5.061040 0.743213 8.633257 -0.587463 0.221252 -0.602722 0.74 0.74 0.8 0.8 0.019 -0.019 0.0000 0.0000 0.0000 0.0000 0.000000 -0.527146 11.96 490 670 0.09 -0.99 0.0000 0.0000
0.011 2 5.094604 0.755200 8.688398 -0.495911 0.045776 -0.381470 0.81 0.81 0.8 0.8 0.025 -0.025 0.0000 0.0000 0.0000 0.0000 0.000000 -0.527206 11.93 510 690 0.09 -0.99 0.0000 0.0000
0.012 2 5.056245 0.745610 8.700385 -0.366211 0.099182 -0.419617 0.87 0.87 0.8 0.8 0.000 -0.013 0.0000 0.0000 0.0000 0.0000 0.000000 -0.527228 11.93 490 670 0.09 -0.99 0.0000 0.0000
0.013 2 5.056245 0.709648 8.654834 -0.343323 0.061035 -0.556946 0.94 0.94 0.8 0.8 -0.013 -0.006 0.0000 0.0000 0.0000 0.0000 0.000000 -0.527234 11.93 490 670 0.09 -0.99 0.0000 0.0000
0.014 2 5.034668 0.714443 8.686001 -0.190735 0.000000 -0.587463 1.01 1.01 0.8 0.8 0.006 -0.013 0.0000 0.0000 0.0000 0.0000 0.000000 -0.527229 11.93 490 650 0.09 -0.99 0.0000 0.0000
0.015 2 5.056245 0.724033 8.638051 -0.114441 0.106812 -0.534058 1.08 1.08 0.8 0.8 0.000 -0.019 0.0000 0.0000 0.0000 0.0000 0.000000 -0.527232 11.93 490 670 0.09 -0.99 0.0000 0.0000
0.016 2 5.044258 0.779175 8.611679 -0.343323 0.190735 -0.534058 1.14 1.14 0.8 0.8 0.006 -0.006 0.0000 0.0000 0.0000 0.0000 0.000000 -0.527279 11.93 510 700 0.09 -0.99 0.0000 0.0000
0.017 2 5.046655 0.664097 8.724360 -0.328064 -0.030518 -0.396729 1.21 1.21 0.8 0.8 0.000 -0.013 0.0000 0.0000 0.0000 0.0000 0.000000 -0.527275 11.93 490 670 0.09 -0.99 0.0000 0.0000
0.018 2 5.061040 0.733623 8.683603 -0.297546 -0.183105 -0.312805 1.28 1.28 0.9 0.9 -0.006 -0.006 0.0000 0.0000 0.0000 0.0000 0.000000 -0.527253 11.93 490 670 0.09 -0.99 0.0000 0.0000
0.019 2 5.049053 0.728828 8.614077 -0.396729 -0.045776 -0.442505 1.34 1.34 0.9 0.9 0.006 -0.019 0.0000 0.0000 0.0000 0.0000 0.000000 -0.527288 11.93 490 670 0.09 -0.99 0.0000 0.0000
0.020 2 5.097002 0.762393 8.628462 -0.350952 0.007629 -0.549316 1.41 1.41 1.0 1.0 0.070 0.013 0.0000 0.0000 0.0000 0.0000 0.000000 -0.527379 11.93 490 670 0.09 -0.99 0.0000 0.0000
0.021 2 5.085014 0.726431 8.798681 -0.335693 -0.160217 -0.488281 1.48 1.48 1.1 1.1 0.089 0.051 0.0000 0.0000 0.0000 0.0000 0.000000 -0.527409 11.91 510 700 0.09 -0.99 0.0000 0.0000
0.022 2 5.077822 0.700059 8.791489 -0.297546 -0.205994 -0.396729 1.55 1.55 1.1 1.1 0.120 0.095 0.0000 0.0000 0.0000 0.0000 0.000000 -0.527342 11.91 490 670 0.09 -0.99 0.0000 0.0000
0.023 2 5.058642 0.704853 8.724360 -0.122070 -0.038147 -0.396729 1.61 1.61 1.2 1.2 0.158 0.133 0.0000 0.0000 0.0000 0.0000 0.000000 -0.527291 11.91 490 670 0.09 -0.99 0.0000 0.0000
0.024 2 5.049053 0.707251 8.662026 -0.053406 0.000000 -0.457764 1.68 1.68 1.2 1.2 0.215 0.203 0.0000 0.0000 0.0000 0.0000 0.000000 -0.527277 11.91 490 660 0.09 -0.99 0.0000 0.0000
0.025 2 4.965141 0.731226 8.609282 -0.213623 0.122070 -0.480652 1.75 1.75 1.3 1.3 0.241 0.247 0.0000 0.0000 0.0000 0.0000 0.000000 -0.527240 11.91 490 670 0.09 -0.99 0.0000 0.0000
0.026 2 4.854858 0.683276 8.678808 -0.373840 0.419617 -0.427246 1.82 1.82 1.4 1.4 0.266 0.241 0.0000 0.0000 0.0000 0.0000 0.000000 -0.527024 11.88 510 700 0.09 -0.99 0.0000 0.0000
0.027 2 4.981924 0.635327 8.674013 -0.213623 0.450134 -0.343323 1.88 1.88 1.4 1.4 0.348 0.253 0.0000 0.0000 0.0000 0.0000 0.000000 -0.526792 11.88 490 670 0.09 -0.99 0.0000 0.0000
0.028 2 5.092207 0.829521 8.762719 -0.312805 0.274658 -0.396729 1.95 1.95 1.5 1.5 0.412 0.272 0.0000 0.0000 0.0000 0.0000 0.000000 -0.526728 11.88 490 670 0.09 -0.99 0.0000 0.0000
0.029 2 4.900410 0.759995 8.532563 -0.457764 0.038147 -0.480652 2.02 2.02 1.6 1.6 0.437 0.298 0.0000 0.0000 0.0000 0.0000 0.000000 -0.526669 11.88 490 670 0.09 -0.99 0.0000 0.0000
0.030 2 4.933974 0.736021 8.671616 -0.366211 0.022888 -0.686646 2.08 2.08 1.6 1.6 0.399 0.310 0.0000 0.0000 0.0000 0.0000 0.000000 -0.526522 11.88 490 670 0.09 -0.99 0.0000 0.0000
0.031 2 4.924385 0.757598 8.810669 -0.160217 0.358582 -0.709534 2.15 2.15 1.7 1.7 0.374 0.310 0.0000 0.0000 0.0000 0.0000 0.000000 -0.526261 11.88 510 700 0.09 -0.99 0.0000 0.0000
0.032 2 4.953154 0.755200 8.695591 -0.297546 0.473022 -0.648499 2.22 2.22 1.8 1.8 0.361 0.336 0.0000 0.0000 0.0004 0.0000 0.000000 -0.526005 11.88 490 680 0.09 -0.99 0.0000 0.0000
0.033 2 5.005898 0.791162 8.491806 -0.205994 0.297546 -0.335693 2.29 2.29 1.8 1.8 0.393 0.355 0.0000 0.0000 0.0004 0.0000 0.000000 -0.525983 11.88 490 670 0.09 -0.99 0.0000 0.0000
0.034 2 5.039463 0.719238 8.700385 -0.183105 0.373840 -0.762939 2.35 2.35 1.9 1.9 0.418 0.361 0.0000 0.0000 0.0004 0.0000 0.000000 -0.526034 11.88 490 670 0.09 -0.99 0.0000 0.0000
0.035 2 4.969936 0.692866 8.873003 -0.213623 0.518799 -0.732422 2.42 2.42 2.0 2.0 0.399 0.367 0.0000 0.0000 0.0004 0.0000 0.000000 -0.525863 11.88 490 670 0.09 -0.99 0.0000 0.0000
0.036 2 4.871641 0.731226 8.575718 -0.297546 0.755310 -0.617981 2.49 2.49 0.8 0.8 0.437 0.393 3.3639 3.2274 0.0008 0.0000 0.000000 -0.525609 11.87 510 810 0.09 -0.99 0.0000 0.0000
0.037 2 5.583686 0.819932 8.410293 -0.198364 0.068665 -1.022339 2.55 2.55 -0.8 0.8 0.336 0.329 3.3639 3.2274 0.0008 0.0000 0.000000 -0.526111 11.87 490 800 0.09 -0.99 0.0000 0.0000
0.038 2 6.096743 -0.246938 9.033632 1.464844 -1.350403 -1.579285 2.62 2.62 0.8 0.8 0.152 0.133 3.3639 3.2274 0.0008 0.0000 0.000000 -0.527385 11.87 490 790 0.09 -0.99 0.0000 0.0000
0.039 2 3.929438 1.937148 9.529907 0.831604 -1.579285 -1.296997 2.69 2.69 -0.8 -0.8 0.057 0.019 4.0609 4.1996 0.0012 0.0000 0.000000 -0.526717 11.87 490 790 0.09 -0.99 0.0000 0.0000
0.040 2 4.890820 1.929956 10.558417 -1.152039 -0.534058 -0.511169 2.76 2.76 -0.8 -0.8 -0.051 -0.089 4.0609 4.1996 0.0012 0.0000 0.000000 -0.524473 11.87 490 800 0.09 -0.99 0.0000 0.0000
0.041 2 5.554917 0.412363 6.638569 -2.304077 0.267029 0.061035 2.82 2.82 0.0 -0.8 -0.082 -0.095 4.0609 4.1996 0.0012 0.0000 0.000000 -0.525283 11.96 510 820 0.09 -0.99 0.0000 0.0000
0.042 2 5.415864 -0.194194 4.718203 -1.426697 -2.204895 0.129700 2.89 2.89 0.8 -0.8 -0.070 -0.120 3.9656 4.4048 0.0016 0.0000 0.000000 -0.530253 11.96 490 800 0.09 -0.99 0.0000 0.0000
0.043 2 5.173720 0.290093 11.769135 0.137329 -2.182007 -0.488281 2.96 2.96 0.8 -0.8 -0.095 -0.095 3.9656 4.4048 0.0016 0.0000 0.000000 -0.532349 11.96 490 800 0.09 -0.99 0.0000 0.0000
0.044 2 4.418520 0.390786 11.704404 1.174927 -0.419617 -0.839233 3.03 3.03 -0.8 -0.8 -0.051 -0.089 3.9656 4.4048 0.0016 0.0000 0.000000 -0.529504 11.96 490 790 0.09 -0.99 0.0000 0.0000
0.045 2 5.013091 1.553555 6.926264 0.595093 0.244141 -0.808716 3.09 3.09 0.8 0.8 -0.089 -0.082 3.9656 4.2391 0.0016 0.0000 0.000000 -0.528798 11.96 490 790 0.09 -0.99 0.0000 0.0000
0.046 2 5.526147 0.712046 5.660405 -0.419617 -1.510620 0.480652 3.16 3.16 0.8 0.8 -0.057 -0.032 3.5493 3.7985 0.0020 0.0000 0.000000 -0.532198 11.87 510 810 0.09 -0.99 0.0000 0.0000
0.047 2 5.396684 1.414502 9.901513 -1.899719 -2.090454 0.473022 3.23 3.23 0.8 0.8 -0.044 -0.025 3.5493 3.7985 0.0020 0.0000 0.000000 -0.534288 11.87 490 790 0.09 -0.99 0.0000 0.0000
0.048 2 5.025078 0.134258 10.412172 -1.853943 -0.869751 -0.015259 3.29 3.29 0.8 0.8 -0.051 -0.025 3.5493 3.7985 0.0020 0.0000 0.000000 -0.533127 11.87 490 790 0.09 -0.99 0.0000 0.0000
0.049 2 4.768549 0.525044 7.842094 -1.350403 -0.679016 -0.442505 3.36 3.36 0.8 0.8 -0.057 -0.032 3.5493 3.7253 0.0020 0.0000 0.000000 -0.532444 11.87 490 790 0.09 -0.99 0.0000 0.0000
0.050 2 4.890820 0.702456 7.959570 -0.770569 -0.679016 -0.488281 3.43 3.43 0.8 0.8 -0.044 -0.070 3.1969 3.3722 0.0024 0.0000 0.000000 -0.532777 11.87 490 800 0.09 -0.99 0.0000 0.0000
0.051 2 5.324760 0.987754 8.398305 -1.007080 -0.816345 -0.587463 3.50 3.50 0.8 0.8 0.013 -0.051 3.1375 3.3722 0.0024 0.0000 0.000000 -0.533290 11.93 510 820 0.09 -0.99 0.0000 0.0000
0.052 2 5.176118 0.692866 8.580512 -0.633240 -0.648499 -0.602722 3.56 3.56 0.8 0.8 -0.013 -0.051 3.1375 3.3722 0.0024 0.0000 0.000000 -0.533711 11.93 490 790 0.09 -0.99 0.0000 0.0000
0.053 2 4.535996 1.371348 9.043222 -0.885010 -1.091003 -0.488281 3.63 3.63 0.8 0.8 -0.044 -0.051 3.1375 3.3722 0.0024 0.0000 0.000000 -0.533135 11.93 490 780 0.09 -0.99 0.0000 0.0000
0.054 2 5.099399 0.961382 10.076528 -1.113892 -0.640869 -0.404358 3.70 3.70 0.8 0.8 -0.025 -0.063 3.1375 2.9270 0.0024 0.0000 0.000000 -0.531835 11.93 490 780 0.09 -0.99 0.0000 0.0000
0.055 2 5.204887 0.688071 7.614336 -1.258850 -0.358582 -0.366211 3.76 3.76 0.9 1.0 -0.006 -0.044 2.7654 2.4722 0.0028 0.0000 0.000000 -0.531887 11.93 490 800 0.09 -0.99 0.0000 0.0000
0.056 2 4.957949 0.424351 7.094087 -0.862122 -1.098633 -0.381470 3.83 3.83 0.9 1.0 -0.013 -0.006 2.7654 2.4722 0.0028 0.0000 0.000000 -0.533343 11.90 510 820 0.09 -0.99 0.0000 0.0000
0.057 2 4.859653 0.757598 9.848769 -0.892639 -1.121521 -0.465393 3.90 3.90 1.0 1.0 -0.025 0.057 2.7654 2.4722 0.0028 0.0000 0.000000 -0.533379 11.90 490 780 0.09 -0.99 0.0000 0.0000
0.058 2 4.981924 0.748008 10.186811 -0.778198 -0.495911 -0.297546 3.97 3.97 1.0 1.1 0.013 0.095 2.7654 2.4722 0.0028 0.0000 0.000000 -0.531873 11.90 490 790 0.09 -0.99 0.0000 0.0000
0.059 2 5.137759 0.889458 8.124995 -0.633240 -0.190735 -0.038147 4.03 4.03 1.0 1.1 0.019 0.133 2.7654 2.4722 0.0028 0.0000 0.000000 -0.531433 11.90 490 800 0.09 -0.99 0.0000 0.0000
0.060 2 5.154541 0.764790 7.341025 -0.572205 -1.106262 0.015259 4.10 4.10 1.1 1.1 0.120 0.152 2.6884 2.4722 0.0028 0.0000 0.000000 -0.532565 11.90 490 800 0.09 -0.99 0.0000 0.0000
0.061 2 5.149746 0.870278 9.088774 -0.679016 -1.029968 -0.152588 4.17 4.17 1.4 1.3 0.222 0.196 2.2765 2.2096 0.0032 0.0000 0.000000 -0.533202 11.93 510 820 0.09 -0.99 0.0000 0.0000
0.062 2 4.998706 0.620942 9.297353 -0.854492 -0.556946 -0.190735 4.24 4.24 1.4 1.4 0.228 0.203 2.2765 2.2096 0.0032 0.0000 0.000000 -0.532646 11.93 490 800 0.09 -0.99 0.0000 0.0000
0.063 2 4.957949 0.860688 8.772309 -0.808716 -0.091553 -0.244141 4.30 4.30 1.4 1.4 0.285 0.222 2.2765 2.2096 0.0032 0.0000 0.000000 -0.532081 11.93 490 800 0.09 -0.99 0.0000 0.0000
0.064 2 4.991514 0.961382 8.218495 -0.991821 -0.167847 -0.282288 4.37 4.37 1.4 1.4 0.380 0.241 2.2765 2.2096 0.0032 0.0000 0.000000 -0.532045 11.93 490 800 0.09 -0.99 0.0000 0.0000
0.065 2 5.020283 0.946997 8.244868 -1.319885 -0.114441 -0.221252 4.44 4.44 1.5 1.5 0.336 0.266 2.2765 2.2096 0.0032 0.0000 0.000000 -0.532331 11.93 490 800 0.09 -0.99 0.0000 0.0000
0.066 2 4.967539 0.853496 8.467832 -1.243591 -0.251770 -0.099182 4.50 4.50 1.3 1.2 0.291 0.272 2.7209 2.8349 0.0036 0.0000 0.000000 -0.532461 11.88 510 820 0.09 -0.99 0.0000 0.0000
0.067 2 4.924385 0.726431 9.000068 -0.877380 -0.038147 -0.114441 4.57 4.57 1.4 1.3 0.323 0.260 2.7209 2.8349 0.0036 0.0000 0.000000 -0.532129 11.88 490 800 0.09 -0.99 0.0000 0.0000
0.068 2 4.926782 0.812739 8.870605 -0.671387 0.297546 -0.137329 4.64 4.64 1.5 1.4 0.367 0.241 2.7209 2.8349 0.0036 0.0000 0.000000 -0.531566 11.88 490 800 0.09 -0.99 0.0000 0.0000
0.069 2 4.955552 0.764790 8.482217 -0.793457 0.480652 -0.030518 4.71 4.71 1.5 1.4 0.317 0.241 2.7209 2.8349 0.0036 0.0000 0.000000 -0.531288 11.88 490 800 0.09 -0.99 0.0000 0.0000
0.070 2 4.905205 0.990151 8.235278 -1.342773 0.396729 0.091553 4.77 4.77 1.0 0.9 0.279 0.222 3.8636 3.9310 0.0040 0.0000 0.000000 -0.531314 11.88 490 800 0.09 -0.99 0.0000 0.0000
0.071 2 5.216875 0.649712 8.367139 -1.602173 0.083923 -0.053406 4.84 4.84 1.1 1.0 0.222 0.190 3.8636 3.9310 0.0040 0.0000 0.000000 -0.531627 11.93 510 820 0.09 -0.99 0.0000 0.0000
0.072 2 5.001103 0.469902 9.019248 -1.098633 0.534058 -0.251770 4.91 4.91 1.2 1.1 0.095 0.108 3.8636 3.9310 0.0040 0.0000 0.000000 -0.531627 11.93 490 800 0.09 -0.99 0.0000 0.0000
0.073 2 5.418262 1.148384 9.251801 -1.228333 0.053406 -0.656128 4.97 4.97 0.8 1.0 0.120 0.120 4.7783 4.3763 0.0044 0.0000 0.000000 -0.531353 11.93 490 800 0.09 -0.99 0.0000 0.0000
0.074 2 6.084756 -0.836714 8.647641 0.152588 -1.213074 -0.900269 5.04 5.04 0.8 1.0 0.082 0.076 4.7783 4.3763 0.0044 0.0000 0.000000 -0.532158 11.93 490 790 0.09 -0.99 0.0000 0.0000
0.075 2 3.648935 2.395063 7.494462 -1.129150 -1.930237 -0.595093 5.11 5.11 0.9 0.8 0.000 0.057 4.7783 4.9534 0.0046 0.0000 0.002595 -0.532204 11.93 490 820 0.09 -0.99 0.0000 0.0000
0.076 2 5.195298 1.903584 11.301631 -2.670288 -0.671387 -0.083923 5.18 5.18 1.2 0.8 -0.006 0.051 4.3204 4.9534 0.0048 0.0000 0.000000 -0.530440 11.91 510 850 0.09 -0.99 0.0000 0.0000
0.077 2 5.677187 0.057539 7.825312 -3.173828 0.236511 0.511169 5.24 5.24 1.2 0.9 0.038 -0.006 4.3204 4.9534 0.0048 0.0000 0.000000 -0.530421 11.91 490 800 0.09 -0.99 0.0000 0.0000
0.078 2 4.924385 0.558608 4.809307 -2.136230 -2.670288 0.328064 5.31 5.31 1.3 1.1 0.120 -0.044 4.3204 4.7448 0.0050 0.0000 0.002595 -0.534046 11.91 490 810 0.09 -0.99 0.0000 0.0000
0.079 2 5.120976 0.798354 11.785917 -1.235962 -2.555847 -0.091553 5.38 5.38 1.3 1.1 0.190 -0.019 4.4192 4.7448 0.0052 0.0000 0.000000 -0.535467 11.91 490 820 0.09 -0.99 0.0000 0.0000
0.080 2 4.550381 0.081514 11.018730 0.083923 -0.480652 -0.038147 5.45 5.45 1.3 1.1 0.190 0.038 4.4192 4.7448 0.0052 0.0000 0.000000 -0.532826 11.91 490 790 0.09 -0.99 0.0000 0.0000
0.081 2 4.571958 1.807685 5.804253 0.091553 0.144958 -0.076294 5.51 5.51 1.3 1.2 0.158 0.101 4.4192 4.5996 0.0054 0.0000 0.002595 -0.532761 11.90 510 850 0.09 -0.99 0.0000 0.0000
0.082 2 5.051450 0.057539 5.945703 -0.022888 -2.563477 0.274658 5.58 5.58 1.4 1.3 0.203 0.139 4.4777 4.5996 0.0056 0.0000 0.000000 -0.535811 11.90 490 830 0.09 -0.99 0.0000 0.0000
0.083 2 5.883369 1.587119 12.303769 -1.205444 -2.166748 0.297546 5.65 5.65 1.4 1.3 0.285 0.171 4.4777 4.5996 0.0056 0.0000 0.000000 -0.536631 11.90 490 800 0.09 -0.99 0.0000 0.0000
0.084 2 5.039463 0.426748 10.659111 -1.289368 -0.228882 0.160217 5.71 5.71 1.5 1.5 0.279 0.203 4.4777 4.3763 0.0058 0.0000 0.002595 -0.534814 11.90 490 830 0.09 -0.99 0.0000 0.0000
0.085 2 4.701421 0.839111 6.350874 -1.510620 -0.831604 0.366211 5.78 5.78 1.2 1.5 0.279 0.234 4.9716 4.3763 0.0060 0.0000 0.000000 -0.534915 11.90 490 830 0.09 -0.99 0.0000 0.0000
0.086 2 4.701421 0.839111 6.350874 -0.648499 -1.846313 0.396729 5.85 5.85 1.3 1.6 0.241 0.247 4.9716 4.3763 0.0060 0.0000 0.000000 -0.536965 11.88 510 820 0.09 -0.99 0.0000 0.0000
0.087 2 4.768549 0.393184 7.024560 -0.152588 -1.678467 0.198364 5.92 5.92 1.3 1.3 0.228 0.260 5.1811 4.9899 0.0064 0.0000 0.000000 -0.538576 11.88 490 800 0.09 -0.99 0.0000 0.0000
0.088 2 4.794922 0.740815 9.474766 0.297546 -0.045776 -0.022888 5.98 5.98 1.3 1.3 0.222 0.272 5.1811 4.9899 0.0064 0.0000 0.000000 -0.538470 11.88 490 790 0.09 -0.99 0.0000 0.0000
0.089 2 5.164131 0.549019 10.239555 -0.679016 -0.717163 0.076294 6.05 6.05 1.4 1.4 0.190 0.247 5.1811 4.9899 0.0064 0.0000 0.000000 -0.537077 11.88 490 790 0.09 -0.99 0.0000 0.0000
0.090 2 4.998706 1.486426 7.607143 -1.350403 -1.976013 0.434875 6.12 6.12 1.5 1.3 0.184 0.234 4.9716 5.2010 0.0068 0.0000 0.000000 -0.536846 11.88 490 800 0.09 -0.99 0.0000 0.0000
0.091 2 5.140156 1.042895 8.340766 -1.640320 -1.464844 0.488281 6.18 6.18 1.6 1.4 0.209 0.203 4.9716 5.2010 0.0068 0.0000 0.000000 -0.537469 11.91 510 820 0.09 -0.99 0.0000 0.0000
0.092 2 5.173720 0.968574 9.199058 -0.823975 -0.633240 0.465393 6.25 6.25 1.1 1.1 0.209 0.190 5.8287 5.7789 0.0072 0.0000 0.000000 -0.537385 11.91 490 800 0.09 -0.99 0.0000 0.0000
0.093 2 4.816499 0.520249 8.182534 -0.106812 -0.686646 0.221252 6.32 6.32 1.2 1.2 0.203 0.196 5.8287 5.7789 0.0072 0.0000 0.000000 -0.537095 11.91 490 800 0.09 -0.99 0.0000 0.0000
0.094 2 4.593535 0.798354 8.168149 -0.007629 -1.182556 0.175476 6.39 6.39 0.8 1.2 0.165 0.158 6.6944 5.9571 0.0076 0.0000 0.000000 -0.536816 11.91 490 800 0.09 -0.99 0.0000 0.0000
0.095 2 5.375107 0.707251 9.647383 0.289917 -0.801086 0.091553 6.45 6.45 0.9 1.2 0.108 0.152 6.6944 5.9571 0.0076 0.0000 0.000000 -0.536308 11.91 490 800 0.09 -0.99 0.0000 0.0000
0.096 2 5.610058 0.659302 8.877797 0.404358 -1.167297 0.076294 6.47 6.52 1.0 1.0 0.013 0.139 6.4089 6.5013 0.0080 0.0000 0.000000 -0.536317 11.91 510 820 0.09 -0.99 0.0000 0.0000
0.097 2 4.528803 0.978164 7.254716 -0.114441 -1.472473 0.030518 6.47 6.59 1.0 1.0 -0.051 0.101 6.4089 6.5013 0.0080 0.0000 0.000000 -0.536825 11.91 490 800 0.09 -0.99 0.0000 0.0000
0.098 2 4.775742 1.136396 9.220634 -0.740051 -0.930786 0.228882 6.47 6.66 1.0 1.1 0.006 0.063 6.4089 6.3786 0.0080 0.0000 0.000000 -0.536473 11.91 490 800 0.09 -0.99 0.0000 0.0000
0.099 2 5.188105 0.954189 9.613818 -0.869751 -0.656128 0.679016 6.47 6.72 1.3 1.4 0.133 0.057 5.9051 5.9051 0.0084 0.0000 0.000000 -0.535495 11.91 490 800 0.09 -0.99 0.0000 0.0000
0.100 2 4.902807 0.685674 7.904428 -0.732422 -1.129150 0.740051 6.47 6.79 1.3 1.4 0.133 0.095 5.9051 5.9051 0.0084 0.0000 0.000000 -0.535303 11.91 490 800 0.09 -0.99 0.0000 0.0000
0.101 2 4.981924 0.771982 7.921211 -0.488281 -1.998901 0.289917 6.47 6.86 1.2 1.1 0.228 0.133 6.1467 6.5964 0.0089 0.0000 0.000000 -0.535785 11.87 510 820 0.09 -0.99 0.0000 0.0000
0.102 2 5.535737 0.549019 8.899375 0.587463 -1.762390 -0.114441 6.47 6.92 1.2 1.1 0.184 0.114 6.1467 6.5964 0.0091 0.0000 0.002595 -0.536276 11.87 490 830 0.09 -0.99 0.0000 0.0000
0.103 2 4.881230 0.426748 8.753130 0.228882 -1.388550 -0.152588 6.47 6.99 0.9 0.9 0.215 0.108 6.5964 7.1929 0.0093 0.0000 0.000000 -0.536230 11.87 490 790 0.09 -0.99 0.0000 0.0000
0.104 2 4.603125 1.541567 9.060004 -0.534058 -0.541687 0.335693 6.47 7.06 0.9 1.0 0.133 0.051 6.5964 7.1172 0.0095 0.0000 0.002595 -0.535320 11.87 490 780 0.09 -0.99 0.0000 0.0000
0.105 2 5.082617 1.325796 9.330917 -1.220703 -1.243591 0.633240 6.47 7.13 1.1 1.2 -0.006 0.025 6.2605 6.8296 0.0097 0.0000 0.000000 -0.534327 11.87 490 790 0.09 -0.99 0.0000 0.0000
0.106 2 5.461416 0.891855 6.796802 -0.457764 -2.014160 0.556946 6.47 7.19 1.1 1.2 0.025 0.038 6.2605 6.8296 0.0097 0.0000 0.000000 -0.535415 11.88 510 780 0.09 -0.99 0.0000 0.0000
0.107 2 5.286401 0.338042 8.369535 0.213623 -1.815796 0.396729 6.47 7.26 1.3 1.9 0.139 0.076 5.8794 5.6345 0.0101 0.0000 0.000000 -0.537125 11.88 490 800 0.09 -0.99 0.0000 0.0000
0.108 2 4.754165 0.587378 9.980630 0.816345 -0.968933 0.167847 6.47 7.33 1.3 1.9 0.158 0.127 5.8794 5.6345 0.0101 0.0000 0.000000 -0.536492 11.88 490 800 0.09 -0.99 0.0000 0.0000
0.109 2 4.773345 0.745610 9.314136 0.617981 -0.854492 0.190735 6.47 7.39 1.3 1.4 0.260 0.215 5.8794 6.5644 0.0103 0.0000 0.002595 -0.534975 11.88 490 820 0.09 -0.99 0.0000 0.0000
0.110 2 4.797319 0.906240 7.000586 0.305176 -1.480103 0.411987 6.47 7.46 1.2 1.5 0.228 0.222 6.0369 6.5644 0.0105 0.0000 0.000000 -0.535039 11.88 490 830 0.09 -0.99 0.0000 0.0000
0.111 2 5.269619 0.913433 8.496601 0.038147 -1.289368 0.488281 6.47 7.53 1.3 1.5 0.184 0.203 6.0369 6.6614 0.0107 0.0000 0.002595 -0.535912 11.90 510 850 0.09 -0.99 0.0000 0.0000
0.112 2 5.135361 0.819932 9.258994 0.198364 -1.403809 0.541687 6.47 7.60 1.2 1.5 0.184 0.209 6.2317 6.6614 0.0109 0.0000 0.000000 -0.535834 11.90 490 830 0.09 -0.99 0.0000 0.0000
0.113 2 4.938769 0.685674 8.376728 0.076294 -1.144409 0.473022 6.47 7.66 1.2 1.2 0.139 0.184 6.2317 7.5546 0.0111 0.0000 0.002595 -0.535534 11.90 490 790 0.09 -0.99 0.0000 0.0000
0.114 2 4.888422 0.757598 8.551743 0.396729 -0.831604 0.366211 6.47 7.73 1.0 1.2 0.120 0.203 6.5644 7.5546 0.0113 0.0000 0.000000 -0.535362 11.90 490 790 0.09 -0.99 0.0000 0.0000
0.115 2 4.957949 0.668892 8.913759 0.694275 -0.358582 0.251770 6.47 7.80 1.0 1.2 0.070 0.158 6.5644 7.6399 0.0115 0.0000 0.002595 -0.534938 11.90 490 790 0.09 -0.99 0.0000 0.0000
0.116 2 5.168926 0.855894 8.642846 0.808716 -1.220703 0.091553 6.47 7.87 0.9 1.2 0.070 0.177 6.8643 7.6833 0.0119 0.0000 0.002595 -0.534721 11.91 510 780 0.09 -0.99 0.0000 0.0000
0.117 2 5.173720 0.817534 7.882851 0.831604 -1.708984 0.091553 6.47 7.93 0.8 1.3 0.051 0.152 6.8643 7.6833 0.0119 0.0000 0.002595 -0.535245 11.91 490 750 0.09 -0.99 0.0000 0.0000
0.118 2 5.037066 0.865483 8.923349 0.190735 -1.342773 0.129700 6.47 8.00 1.0 1.5 -0.006 0.146 6.5644 7.3096 0.0123 0.0000 0.002595 -0.535511 11.91 490 790 0.09 -0.99 0.0000 0.0000
0.119 2 5.029873 1.364155 9.436406 -0.076294 -0.572205 0.267029 6.47 8.07 1.0 1.6 -0.025 0.120 6.5644 7.3096 0.0123 0.0000 0.002595 -0.534860 11.91 490 780 0.09 -0.99 0.0000 0.0000
0.120 2 4.866846 0.683276 8.537358 0.160217 -1.319885 0.236511 6.47 8.13 1.1 1.2 0.025 0.165 6.3190 8.0016 0.0127 0.0000 0.002595 -0.534264 11.91 490 790 0.09 -0.99 0.0000 0.0000
0.121 2 5.068232 0.647314 7.647900 0.625610 -1.502991 0.083923 6.47 8.20 1.1 1.3 0.032 0.158 6.3190 8.0016 0.0127 0.0000 0.002595 -0.534633 11.91 510 810 0.09 -0.99 0.0000 0.0000
0.122 2 5.053847 0.704853 8.558935 0.785828 -1.083374 0.137329 6.47 8.27 1.2 1.5 0.082 0.165 6.1467 7.5970 0.0131 0.0000 0.002595 -0.535144 11.91 490 790 0.09 -0.99 0.0000 0.0000
0.123 2 4.840474 0.690469 8.911362 0.831604 -0.465393 0.144958 6.47 8.34 1.2 1.3 0.089 0.101 6.1467 8.0974 0.0133 0.0000 0.005191 -0.534769 11.91 490 790 0.09 -0.99 0.0000 0.0000
0.124 2 4.955552 0.759995 8.856220 0.671387 -0.747681 0.198364 6.47 8.40 1.2 1.3 0.120 0.152 6.0369 8.0974 0.0135 0.0000 0.002595 -0.534167 11.91 490 800 0.09 -0.99 0.0000 0.0000
0.125 2 5.063437 0.911035 8.163354 0.686646 -0.839233 0.305176 6.47 8.47 1.3 1.4 0.171 0.139 6.0101 8.0016 0.0137 0.0000 0.005191 -0.534151 11.91 490 790 0.09 -0.99 0.0000 0.0000
0.126 2 5.132964 0.800752 8.707578 0.686646 -0.602722 0.152588 6.47 8.54 1.3 1.5 0.203 0.146 6.0101 8.0016 0.0137 0.0000 0.005191 -0.534357 11.91 510 810 0.09 -0.99 0.0000 0.0000
0.127 2 5.001103 0.714443 8.702783 0.732422 -0.312805 -0.045776 6.47 8.61 1.1 1.2 0.171 0.139 6.2605 8.6684 0.0141 0.0000 0.005191 -0.534221 11.91 490 790 0.09 -0.99 0.0000 0.0000
0.128 2 4.943564 0.822329 8.566128 0.686646 -0.373840 -0.320435 6.47 8.67 1.1 1.7 0.146 0.133 6.2605 7.6833 0.0143 0.0000 0.007786 -0.533995 11.91 490 800 0.09 -0.99 0.0000 0.0000
0.129 2 4.921987 0.894253 8.357549 0.755310 -0.427246 -0.312805 6.47 8.74 1.0 1.8 0.196 0.114 6.5644 7.6833 0.0145 0.0000 0.005191 -0.533880 11.91 490 790 0.09 -0.99 0.0000 0.0000
0.130 2 4.816499 0.812739 8.729155 0.892639 -0.480652 -0.267029 6.47 8.81 1.0 1.3 0.158 0.228 6.5644 8.6132 0.0147 0.0000 0.007786 -0.533578 11.91 490 800 0.09 -0.99 0.0000 0.0000
0.131 2 5.046655 0.738418 8.537358 0.549316 -0.541687 -0.183105 6.47 8.87 0.9 1.3 0.038 0.222 6.6944 8.8384 0.0151 0.0000 0.007786 -0.533298 11.91 510 810 0.09 -0.99 0.0000 0.0000
0.132 2 5.137759 1.006934 8.621269 0.610352 -0.495911 -0.114441 6.47 8.94 0.9 1.3 0.019 0.184 6.6944 8.8384 0.0151 0.0000 0.007786 -0.533354 11.91 490 790 0.09 -0.99 0.0000 0.0000
0.133 2 4.902807 0.496274 8.733950 0.961304 -0.434875 -0.335693 6.47 9.01 1.1 1.2 0.044 0.120 6.4702 9.1370 0.0155 0.0000 0.007786 -0.533186 11.91 490 790 0.09 -0.99 0.0000 0.0000
0.134 2 4.895615 0.743213 8.741142 1.205444 -0.511169 -0.450134 6.47 9.08 1.1 1.4 0.082 0.114 6.4702 8.8384 0.0155 0.0000 0.007786 -0.532755 11.91 490 790 0.09 -0.99 0.0000 0.0000
0.135 2 4.955552 0.846304 8.041083 0.846863 -0.328064 -0.251770 6.47 9.14 1.0 1.7 0.076 0.114 6.6288 8.3473 0.0159 0.0000 0.007786 -0.532736 11.91 490 790 0.09 -0.99 0.0000 0.0000
0.136 2 4.977129 0.812739 8.515781 0.404358 -0.083923 -0.038147 6.47 9.21 1.0 1.4 0.044 0.108 6.6288 9.0151 0.0161 0.0000 0.010382 -0.532896 11.90 510 820 0.09 -0.99 0.0000 0.0000
0.137 2 4.950757 0.750405 9.270981 0.274658 -0.144958 0.022888 6.47 9.28 1.1 1.4 0.000 0.158 6.4702 9.0151 0.0163 0.0000 0.007786 -0.532438 11.90 490 800 0.09 -0.99 0.0000 0.0000
0.138 2 5.051450 0.903843 8.966504 0.831604 -0.328064 -0.022888 6.47 9.34 1.0 1.6 -0.006 0.133 6.4702 8.7243 0.0165 0.0000 0.010382 -0.531835 11.90 490 790 0.09 -0.99 0.0000 0.0000
0.139 2 5.154541 0.486685 8.376728 1.365662 -0.396729 -0.312805 6.47 9.41 1.1 1.2 0.076 0.146 6.3786 9.5230 0.0169 0.0000 0.010382 -0.531851 11.90 490 790 0.09 -0.99 0.0000 0.0000
0.140 2 4.981924 0.712046 8.439062 1.251221 -0.068665 -0.549316 6.47 9.48 1.1 1.3 0.095 0.139 6.3786 9.3908 0.0169 0.0000 0.010382 -0.532065 11.90 490 790 0.09 -0.99 0.0000 0.0000
0.141 2 4.742177 1.057280 8.844234 0.854492 -0.175476 -0.473022 6.47 9.55 1.1 1.7 0.171 0.146 6.2896 8.7243 0.0173 0.0000 0.010382 -0.531684 11.91 510 810 0.09 -0.99 0.0000 0.0000
0.142 2 5.152143 0.829521 8.748335 0.320435 -0.091553 -0.335693 6.47 9.61 1.1 1.3 0.063 0.139 6.2896 9.5230 0.0175 0.0000 0.012977 -0.531301 11.91 490 790 0.09 -0.99 0.0000 0.0000
0.143 2 5.132964 0.946997 8.822656 0.595093 -0.129700 -0.137329 6.47 9.68 1.2 1.5 0.051 0.139 6.2031 9.1991 0.0179 0.0000 0.012977 -0.531269 11.91 490 790 0.09 -0.99 0.0000 0.0000
0.144 2 4.974731 0.462710 8.688398 0.831604 -0.045776 -0.366211 6.47 9.75 1.2 1.8 0.114 0.133 6.2031 8.8965 0.0179 0.0000 0.012977 -0.531116 11.91 490 780 0.09 -0.99 0.0000 0.0000
0.145 2 4.912397 0.781572 8.621269 1.197815 -0.434875 -0.701904 6.47 9.82 1.2 1.2 0.120 0.177 6.2031 9.9432 0.0183 0.0001 0.012977 -0.530879 11.91 490 790 0.09 -0.99 0.0000 0.0000
0.146 2 4.845268 0.635327 7.878057 1.060486 -0.144958 -0.587463 6.47 9.88 1.1 1.2 0.095 0.171 6.3190 10.0916 0.0185 0.0001 0.015573 -0.530959 11.88 510 820 0.09 -0.99 0.0000 0.0000
0.147 2 4.993911 0.920625 8.743540 0.633240 0.045776 -0.434875 6.47 9.95 1.1 1.2 0.158 0.095 6.3190 10.0916 0.0185 0.0001 0.015573 -0.531043 11.88 490 790 0.09 -0.99 0.0000 0.0000
0.148 2 4.902807 1.035703 8.908964 0.167847 0.366211 -0.396729 6.47 10.02 1.1 1.3 0.133 0.082 6.4089 9.9432 0.0189 0.0001 0.015573 -0.530643 11.88 490 790 0.09 -0.99 0.0000 0.0000
0.149 2 4.938769 0.702456 8.801079 0.282288 0.198364 -0.534058 6.47 10.08 1.1 1.7 0.044 0.070 6.4089 9.3908 0.0191 0.0001 0.018168 -0.530175 11.88 490 790 0.09 -0.99 0.0000 0.0000
0.150 2 5.257632 0.750405 8.594897 0.816345 -0.167847 -0.709534 6.47 10.15 1.0 1.3 0.070 0.089 6.5013 10.1674 0.0195 0.0001 0.018168 -0.530175 11.88 490 790 0.09 -0.99 0.0000 0.0000
0.151 2 5.099399 0.642520 8.427075 0.907898 -0.488281 -0.740051 6.47 10.22 1.0 1.3 0.127 0.101 6.5013 10.1674 0.0195 0.0001 0.018168 -0.530505 11.88 510 810 0.09 -0.99 0.0000 0.0000
0.152 2 4.809307 0.935010 8.606885 0.617981 0.099182 -0.617981 6.47 10.29 1.1 1.4 0.203 0.139 6.4394 10.0916 0.0199 0.0001 0.018168 -0.530436 11.88 490 790 0.09 -0.99 0.0000 0.0000
0.153 2 4.859653 0.817534 9.541894 0.564575 0.457764 -0.404358 6.47 10.35 1.1 1.4 0.146 0.139 6.4394 10.1674 0.0201 0.0001 0.020764 -0.529637 11.88 490 780 0.09 -0.99 0.0000 0.0000
0.154 2 5.144951 0.649712 8.592500 0.679016 0.228882 -0.350952 6.47 10.42 1.1 1.9 0.108 0.158 6.4702 9.3260 0.0205 0.0001 0.020764 -0.529149 11.88 490 790 0.09 -0.99 0.0000 0.0000
0.155 2 5.168926 0.810342 7.961967 0.663757 -0.320435 -0.556946 6.47 10.49 1.1 2.0 0.089 0.190 6.4702 9.1991 0.0205 0.0001 0.020764 -0.529714 11.88 490 780 0.09 -0.99 0.0000 0.0000
0.156 2 4.914795 0.771982 8.530166 0.610352 0.022888 -0.686646 6.47 10.55 1.1 1.4 0.158 0.241 6.3786 10.4021 0.0209 0.0001 0.020764 -0.530104 11.90 510 810 0.09 -0.99 0.0000 0.0000
0.157 2 4.835679 0.625737 9.498740 0.656128 0.541687 -0.656128 6.47 10.62 1.1 1.6 0.139 0.215 6.3786 10.1674 0.0211 0.0001 0.023359 -0.529440 11.90 490 780 0.09 -0.99 0.0000 0.0000
0.158 2 4.917192 0.767187 8.805874 0.831604 0.129700 -0.625610 6.47 10.69 1.1 1.5 0.082 0.196 6.3190 10.4827 0.0215 0.0001 0.023359 -0.528654 11.90 490 790 0.09 -0.99 0.0000 0.0000
0.159 2 5.156939 0.745610 8.232881 0.892639 -0.228882 -0.633240 6.47 10.76 1.1 1.5 0.082 0.158 6.3190 10.4827 0.0215 0.0001 0.023359 -0.528769 11.90 490 790 0.09 -0.99 0.0000 0.0000
0.160 2 5.092207 1.062075 8.498999 0.442505 -0.190735 -0.564575 6.47 10.82 1.1 1.8 0.076 0.171 6.3190 10.0916 0.0219 0.0001 0.023359 -0.529187 11.90 490 790 0.09 -0.99 0.0000 0.0000
0.161 2 4.943564 0.817534 8.750732 0.350952 0.473022 -0.564575 6.47 10.89 1.1 1.3 0.101 0.158 6.3190 10.9941 0.0221 0.0001 0.025955 -0.529142 11.88 510 820 0.09 -0.99 0.0000 0.0000
0.162 2 4.859653 0.779175 9.045620 0.282288 0.740051 -0.679016 6.47 10.96 1.2 1.6 0.158 0.171 6.2605 10.6478 0.0225 0.0001 0.025955 -0.528626 11.88 490 790 0.09 -0.99 0.0000 0.0000
0.163 2 4.965141 0.759995 8.688398 0.442505 0.701904 -0.915527 6.47 11.03 1.2 1.6 0.139 0.146 6.2605 10.6478 0.0227 0.0001 0.028550 -0.528167 11.88 490 800 0.09 -0.99 0.0000 0.0000
0.164 2 5.044258 0.654507 8.638051 0.640869 0.480652 -0.938416 6.47 11.09 1.2 1.4 0.152 0.171 6.2605 11.0842 0.0229 0.0002 0.025955 -0.528071 11.88 490 800 0.09 -0.99 0.0000 0.0000
0.165 2 5.051450 0.611353 8.510986 0.587463 0.526428 -0.823975 6.47 11.16 1.0 1.7 0.139 0.165 6.5644 10.6478 0.0231 0.0002 0.028550 -0.528142 11.88 490 790 0.09 -0.99 0.0000 0.0000
0.166 2 5.080220 0.704853 8.709975 0.694275 0.495911 -0.854492 6.47 11.23 0.9 1.4 0.165 0.127 6.8993 11.2689 0.0235 0.0002 0.028550 -0.528207 11.90 510 780 0.09 -0.99 0.0000 0.0000
0.167 2 4.859653 1.074062 8.580512 0.816345 0.205994 -0.923157 6.47 11.29 0.9 1.8 0.070 0.177 6.8993 10.6478 0.0237 0.0002 0.031146 -0.528071 11.90 490 760 0.09 -0.99 0.0000 0.0000
0.168 2 4.878833 0.565801 8.532563 0.236511 0.679016 -0.885010 6.47 11.36 0.9 1.6 0.000 0.139 6.8296 11.0842 0.0241 0.0002 0.031146 -0.527852 11.90 490 760 0.09 -0.99 0.0000 0.0000
0.169 2 5.106592 0.999741 9.251801 0.480652 0.915527 -0.885010 6.47 11.43 0.9 1.6 -0.044 0.158 6.7277 11.0842 0.0241 0.0002 0.031146 -0.527522 11.90 490 790 0.09 -0.99 0.0000 0.0000
0.170 2 5.053847 0.390786 8.964107 0.846863 0.587463 -1.068115 6.47 11.50 0.9 1.6 -0.032 0.139 6.7277 11.0842 0.0243 0.0002 0.033741 -0.527139 11.90 490 800 0.09 -0.99 0.0000 0.0000
0.171 2 5.149746 0.812739 8.467832 0.984192 0.106812 -1.045227 6.47 11.56 1.1 1.4 -0.019 0.152 6.3487 11.5579 0.0247 0.0002 0.033741 -0.527187 11.93 510 810 0.09 -0.99 0.0000 0.0000
0.172 2 5.005898 0.978164 7.966763 0.602722 0.205994 -1.045227 6.47 11.63 1.1 2.1 0.025 0.133 6.3487 10.3227 0.0249 0.0002 0.036337 -0.527709 11.93 490 790 0.09 -0.99 0.0000 0.0000
0.173 2 4.833281 0.994946 8.592500 0.320435 0.663757 -0.854492 6.47 11.70 1.2 1.5 0.019 0.171 6.1467 11.6575 0.0253 0.0002 0.036337 -0.527880 11.93 490 790 0.09 -0.99 0.0000 0.0000
0.174 2 4.854858 0.870278 9.050415 0.030518 0.877380 -0.862122 6.47 11.76 1.2 1.0 0.076 0.177 6.1467 12.6380 0.0255 0.0002 0.038932 -0.527361 11.93 490 790 0.09 -0.99 0.0000 0.0000
0.175 2 5.094604 0.968574 8.772309 0.305176 0.617981 -0.816345 6.47 11.83 1.4 1.2 0.120 0.101 5.8287 12.1826 0.0259 0.0003 0.038932 -0.526990 11.93 490 790 0.09 -0.99 0.0000 0.0000
0.176 2 5.269619 0.457915 8.573320 0.579834 0.312805 -0.907898 6.47 11.90 1.4 1.4 0.114 0.038 5.8287 11.8620 0.0259 0.0003 0.038932 -0.527212 11.91 510 810 0.09 -0.99 0.0000 0.0000
0.177 2 5.070630 0.680879 8.599692 1.037598 0.007629 -0.999451 6.47 11.97 1.2 2.5 0.127 0.057 6.0913 9.9432 0.0263 0.0003 0.038932 -0.527501 11.91 490 790 0.09 -0.99 0.0000 0.0000
0.178 2 5.008296 0.587378 8.333574 0.846863 0.381470 -0.831604 6.47 12.03 1.2 1.8 0.177 0.089 6.0913 11.3636 0.0265 0.0003 0.041528 -0.527685 11.91 490 790 0.09 -0.99 0.0000 0.0000
0.179 2 4.847666 0.786367 9.227827 1.296997 0.785828 -0.587463 6.47 12.10 0.9 2.1 0.209 0.196 6.7613 10.9054 0.0270 0.0003 0.041528 -0.527373 11.91 490 790 0.09 -0.99 0.0000 0.0000
0.180 2 5.068232 0.561006 9.457983 1.152039 0.831604 -0.846863 6.47 12.17 0.9 1.5 0.101 0.203 6.7613 12.0738 0.0272 0.0003 0.044123 -0.526575 11.91 490 790 0.09 -0.99 0.0000 0.0000
0.181 2 5.178515 1.110024 8.405498 1.022339 -0.053406 -0.892639 6.47 12.24 1.1 1.6 0.019 0.228 6.5013 12.0738 0.0276 0.0003 0.044123 -0.526479 11.91 510 820 0.09 -0.99 0.0000 0.0000
0.182 2 4.924385 0.824727 7.302666 0.946045 0.289917 -0.663757 6.47 12.30 1.1 1.7 0.057 0.190 6.5013 11.9670 0.0276 0.0003 0.044123 -0.527393 11.91 490 790 0.09 -0.99 0.0000 0.0000
0.183 2 4.871641 0.683276 9.256597 0.877380 1.022339 -0.732422 6.47 12.37 1.0 1.7 0.101 0.184 6.5013 12.0738 0.0280 0.0003 0.044123 -0.527609 11.91 490 790 0.09 -0.99 0.0000 0.0000
0.184 2 4.917192 1.002139 9.649780 0.633240 0.930786 -0.877380 6.47 12.44 1.0 2.1 0.013 0.177 6.6288 11.3636 0.0282 0.0003 0.046719 -0.526607 11.91 490 780 0.09 -0.99 0.0000 0.0000
0.185 2 4.972334 0.913433 8.194521 0.740051 0.267029 -0.823975 6.47 12.50 1.0 1.6 0.013 0.171 6.6288 12.4061 0.0284 0.0004 0.049314 -0.526234 11.91 490 800 0.09 -0.99 0.0000 0.0000
0.186 2 5.020283 0.712046 7.911621 0.892639 0.259399 -0.762939 6.47 12.57 1.1 2.0 0.032 0.165 6.3190 11.6575 0.0288 0.0004 0.049314 -0.526807 11.90 510 810 0.09 -0.99 0.0000 0.0000
0.187 2 5.195298 0.719238 9.167891 0.930786 0.541687 -0.953674 6.47 12.64 1.1 1.8 0.076 0.146 6.3190 12.1826 0.0290 0.0004 0.051910 -0.527072 11.90 490 800 0.09 -0.99 0.0000 0.0000
0.188 2 5.005898 0.879868 8.650039 0.900269 0.198364 -0.823975 6.47 12.71 1.1 1.9 0.177 0.165 6.4089 11.9670 0.0294 0.0004 0.051910 -0.526927 11.90 490 790 0.09 -0.99 0.0000 0.0000
0.189 2 4.931577 0.656904 8.309599 0.694275 0.572205 -0.747681 6.47 12.77 1.1 1.6 0.101 0.171 6.4089 12.7573 0.0296 0.0004 0.054505 -0.526983 11.90 490 790 0.09 -0.99 0.0000 0.0000
0.190 2 4.910000 0.709648 9.510727 0.999451 0.846863 -0.877380 6.47 12.84 1.2 1.7 0.070 0.177 6.1189 12.6380 0.0298 0.0004 0.051910 -0.526558 11.90 490 790 0.09 -0.99 0.0000 0.0000
0.191 2 5.173720 0.477095 9.110352 1.266479 0.511169 -0.831604 6.47 12.91 1.2 2.4 0.095 0.139 6.1189 11.3636 0.0300 0.0004 0.054505 -0.525951 11.90 510 820 0.09 -0.99 0.0000 0.0000
0.192 2 5.132964 0.851099 7.786953 1.136780 -0.213623 -0.839233 6.47 12.97 1.6 1.7 0.114 0.177 5.4970 12.7573 0.0304 0.0005 0.054505 -0.526417 11.90 490 790 0.09 -0.99 0.0000 0.0000
0.193 2 4.926782 1.011729 7.830107 0.663757 0.160217 -0.648499 6.47 13.04 1.6 1.7 0.177 0.241 5.4970 12.7573 0.0306 0.0005 0.057101 -0.527325 11.90 490 800 0.09 -0.99 0.0000 0.0000
0.194 2 4.790127 0.637725 9.546689 0.473022 1.029968 -0.610352 6.47 13.11 1.6 1.5 0.184 0.196 5.4970 13.2575 0.0308 0.0005 0.059696 -0.527037 11.90 490 790 0.09 -0.99 0.0000 0.0000
0.195 2 4.919590 0.745610 9.071992 0.701904 0.854492 -0.556946 6.47 13.18 1.2 2.2 0.241 0.146 6.2605 12.0738 0.0312 0.0005 0.059696 -0.526109 11.90 490 790 0.09 -0.99 0.0000 0.0000
0.196 2 5.152143 0.779175 7.933198 1.434326 0.061035 -0.556946 6.47 13.24 0.8 1.8 0.247 0.139 7.1172 12.8788 0.0316 0.0005 0.059696 -0.526306 11.88 510 780 0.09 -0.99 0.0000 0.0000
0.197 2 5.125772 0.915830 8.132187 1.731873 -0.282288 -0.778198 6.47 13.31 0.8 2.2 0.158 0.177 7.1172 12.2934 0.0318 0.0005 0.062292 -0.527157 11.88 490 750 0.09 -0.99 0.0000 0.0000
0.198 2 4.969936 0.781572 8.755527 1.121521 0.030518 -0.770569 6.47 13.38 0.9 1.6 0.013 0.184 6.8296 13.3888 0.0322 0.0006 0.062292 -0.527400 11.88 490 750 0.09 -0.99 0.0000 0.0000
0.199 2 5.128169 0.958984 9.309340 0.961304 0.869751 -0.717163 6.47 13.45 0.9 2.3 -0.038 0.203 6.8296 12.2934 0.0324 0.0006 0.064887 -0.527046 11.88 490 750 0.09 -0.99 0.0000 0.0000
0.200 2 5.015488 0.457915 9.513124 1.174927 0.793457 -0.747681 6.47 13.51 1.0 1.6 -0.051 0.203 6.6944 13.5227 0.0326 0.0006 0.067483 -0.526384 11.88 490 790 0.09 -0.99 0.0000 0.0000
0.201 2 5.183311 0.570596 8.774707 1.380920 0.068665 -0.907898 6.47 13.58 1.2 2.3 -0.070 0.222 6.2031 12.4061 0.0330 0.0006 0.067483 -0.526039 11.90 510 810 0.09 -0.99 0.0000 0.0000
0.202 2 5.120976 0.903843 7.715029 1.113892 -0.312805 -0.694275 6.47 13.65 1.2 1.9 0.019 0.228 6.2031 13.1288 0.0332 0.0006 0.070078 -0.526710 11.90 490 790 0.09 -0.99 0.0000 0.0000
0.203 2 5.044258 1.009331 7.791748 0.709534 0.122070 -0.358582 6.47 13.71 1.1 1.7 0.095 0.228 6.4089 13.6593 0.0336 0.0007 0.070078 -0.527772 11.90 490 790 0.09 -0.99 0.0000 0.0000
0.204 2 4.838076 0.935010 9.105556 0.457764 0.396729 -0.213623 6.47 13.78 1.1 1.7 0.139 0.158 6.4089 13.7987 0.0338 0.0007 0.072674 -0.527840 11.90 490 790 0.09 -0.99 0.0000 0.0000
0.205 2 4.852461 0.853496 9.261392 0.610352 0.701904 -0.335693 6.47 13.85 0.9 2.1 0.190 0.120 6.8643 13.1288 0.0342 0.0007 0.072674 -0.526993 11.90 490 750 0.09 -0.99 0.0000 0.0000
0.206 2 5.152143 0.515454 8.769912 1.281738 0.587463 -0.511169 6.47 13.92 0.9 1.7 0.108 0.133 6.8643 13.7987 0.0344 0.0007 0.075269 -0.526583 11.91 510 780 0.09 -0.99 0.0000 0.0000
0.207 2 5.238452 0.577788 7.997930 1.693726 0.328064 -0.686646 6.47 13.98 1.1 1.6 -0.006 0.184 6.4089 14.0861 0.0348 0.0008 0.075269 -0.527148 11.91 490 790 0.09 -0.99 0.0000 0.0000
0.208 2 5.216875 0.896650 8.290420 1.510620 0.091553 -0.595093 6.47 14.05 1.1 1.6 -0.025 0.152 6.4089 14.2344 0.0350 0.0008 0.077865 -0.528008 11.91 490 790 0.09 -0.99 0.0000 0.0000
0.209 2 4.809307 1.023716 8.856220 0.862122 0.267029 -0.549316 6.47 14.12 1.3 2.3 0.044 0.114 5.9571 13.0026 0.0354 0.0008 0.077865 -0.528036 11.91 490 790 0.09 -0.99 0.0000 0.0000
0.210 2 4.950757 0.788765 9.517920 0.617981 0.831604 -0.282288 6.47 14.18 1.3 2.0 0.089 0.133 5.9571 13.6593 0.0356 0.0008 0.080460 -0.527245 11.91 490 790 0.09 -0.99 0.0000 0.0000
0.211 2 5.183311 0.685674 8.954516 0.984192 0.640869 -0.274658 6.47 14.25 1.3 1.9 0.101 0.158 5.9835 13.9409 0.0360 0.0008 0.080460 -0.526736 11.90 510 810 0.09 -0.99 0.0000 0.0000
0.212 2 5.142553 0.774380 7.770171 1.159668 0.000000 -0.419617 6.47 14.32 1.3 1.8 0.152 0.165 5.9835 14.2344 0.0362 0.0009 0.083056 -0.527284 11.90 490 780 0.09 -0.99 0.0000 0.0000
0.213 2 5.001103 0.716841 7.993134 1.518250 0.030518 -0.404358 6.47 14.39 1.3 2.2 0.171 0.133 5.9835 13.5227 0.0366 0.0009 0.083056 -0.528166 11.90 490 790 0.09 -0.99 0.0000 0.0000
0.214 2 5.058642 0.726431 9.297353 1.266479 0.953674 -0.381470 6.47 14.45 1.2 1.8 0.165 0.139 6.1189 14.2344 0.0368 0.0009 0.085651 -0.528168 11.90 490 800 0.09 -0.99 0.0000 0.0000
0.215 2 4.794922 1.100435 8.877797 1.235962 0.633240 -0.320435 6.47 14.52 1.2 1.9 0.234 0.190 6.1189 14.2344 0.0370 0.0009 0.088246 -0.527532 11.90 490 800 0.09 -0.99 0.0000 0.0000
0.216 2 4.782934 0.472300 7.755786 1.091003 0.587463 -0.350952 6.47 14.59 1.0 1.8 0.171 0.184 6.5644 14.3858 0.0374 0.0010 0.088246 -0.527450 11.90 510 820 0.09 -0.99 0.0000 0.0000
0.217 2 5.307978 0.661699 9.057607 1.083374 0.411987 -0.396729 6.47 14.66 1.0 2.0 0.158 0.196 6.5644 14.2344 0.0378 0.0010 0.093437 -0.527716 11.90 490 800 0.09 -0.99 0.0000 0.0000
0.218 2 5.274414 0.903843 8.985683 1.152039 0.015259 -0.366211 6.47 14.72 0.9 1.9 0.190 0.196 6.8993 14.3858 0.0382 0.0010 0.093437 -0.527767 11.90 490 750 0.09 -0.99 0.0000 0.0000
0.219 2 4.924385 0.748008 8.177739 1.205444 -0.305176 -0.381470 6.47 14.79 0.9 1.8 0.095 0.171 6.8993 14.6986 0.0384 0.0011 0.096033 -0.527940 11.90 490 760 0.09 -0.99 0.0000 0.0000
0.220 2 4.821294 0.798354 8.338368 1.144409 0.480652 -0.473022 6.47 14.86 1.0 1.8 -0.006 0.114 6.6614 14.6986 0.0388 0.0011 0.096033 -0.528041 11.90 490 790 0.09 -0.99 0.0000 0.0000
0.221 2 4.962744 0.882266 9.064799 1.152039 0.938416 -0.343323 6.47 14.92 1.0 1.7 -0.057 0.120 6.6614 15.0252 0.0390 0.0011 0.098628 -0.527723 11.90 510 820 0.09 -0.99 0.0000 0.0000
0.222 2 5.142553 0.853496 8.683603 0.801086 0.473022 -0.221252 6.47 14.99 1.1 2.6 -0.051 0.120 6.4089 13.5227 0.0394 0.0012 0.098628 -0.527514 11.90 490 790 0.09 -0.99 0.0000 0.0000
0.223 2 5.207285 0.884663 8.120200 0.976562 -0.236511 -0.022888 6.47 15.06 1.1 2.2 0.038 0.171 6.4089 14.2344 0.0396 0.0012 0.101224 -0.528005 11.90 490 790 0.09 -0.99 0.0000 0.0000
0.224 2 5.075425 0.580186 8.513384 1.106262 -0.045776 -0.022888 6.47 15.13 1.2 1.8 0.038 0.203 6.2605 15.1940 0.0400 0.0012 0.101224 -0.528521 11.90 490 790 0.09 -0.99 0.0000 0.0000
0.225 2 4.969936 0.628135 9.139121 1.464844 0.480652 -0.114441 6.47 15.19 1.2 1.7 0.095 0.209 6.2605 15.3667 0.0402 0.0012 0.103819 -0.528305 11.90 490 790 0.09 -0.99 0.0000 0.0000
0.226 2 4.711010 0.587378 8.419883 1.831055 0.381470 -0.122070 6.47 15.26 1.3 2.9 0.165 0.139 6.0640 13.1288 0.0406 0.0013 0.103819 -0.527818 11.90 510 820 0.09 -0.99 0.0000 0.0000
0.227 2 4.761357 0.491479 8.139380 1.594543 0.267029 -0.061035 6.47 15.33 1.3 2.5 0.171 0.133 6.0640 14.0861 0.0408 0.0013 0.106415 -0.527652 11.90 490 800 0.09 -0.99 0.0000 0.0000
0.228 2 5.209682 0.831919 8.892182 1.022339 0.251770 -0.030518 6.47 15.39 1.1 2.4 0.234 0.241 6.3190 14.3858 0.0414 0.0014 0.109010 -0.527687 11.90 490 800 0.09 -0.99 0.0000 0.0000
0.229 2 5.212080 0.906240 8.801079 0.839233 0.289917 0.114441 6.47 15.46 1.1 1.8 0.196 0.266 6.3190 15.5433 0.0416 0.0014 0.111606 -0.527774 11.90 490 790 0.09 -0.99 0.0000 0.0000
0.230 2 4.991514 0.973369 8.311996 0.701904 0.114441 0.259399 6.47 15.53 1.0 1.7 0.146 0.260 6.5644 15.7241 0.0420 0.0014 0.111606 -0.527968 11.90 490 790 0.09 -0.99 0.0000 0.0000
0.231 2 5.128169 0.836714 8.503794 0.724792 0.297546 0.083923 6.47 15.60 1.0 2.1 0.177 0.209 6.5644 15.1940 0.0422 0.0015 0.114201 -0.528237 11.88 510 820 0.09 -0.99 0.0000 0.0000
0.232 2 4.921987 1.191538 8.822656 1.060486 0.038147 -0.144958 6.47 15.66 0.9 1.8 0.133 0.171 6.7277 15.7241 0.0426 0.0015 0.114201 -0.528185 11.88 480 790 0.09 -0.99 0.0000 0.0000
0.233 2 4.500034 0.323657 8.563730 1.495361 0.434875 -0.114441 6.47 15.73 0.9 2.0 0.057 0.158 6.7277 15.5433 0.0428 0.0015 0.116797 -0.527550 11.88 490 800 0.09 -0.99 0.0000 0.0000
0.234 2 5.104194 0.268516 9.472368 1.640320 0.480652 0.068665 6.47 15.80 1.1 1.9 -0.032 0.139 6.5013 15.7241 0.0432 0.0016 0.116797 -0.526779 11.88 490 790 0.09 -0.99 0.0000 0.0000
0.235 2 5.672392 0.896650 8.580512 0.869751 -0.648499 0.053406 6.47 15.87 1.1 1.8 0.006 0.133 6.5013 15.9091 0.0436 0.0016 0.121988 -0.527027 11.88 490 790 0.09 -0.99 0.0000 0.0000
0.236 2 4.854858 0.899048 7.758183 0.778198 -1.091003 0.038147 6.47 15.93 1.0 2.4 0.127 0.108 6.6614 15.0252 0.0440 0.0017 0.121988 -0.527925 11.90 510 810 0.09 -0.99 0.0000 0.0000
0.237 2 4.442495 0.419556 9.016850 0.923157 0.236511 0.091553 6.47 16.00 1.0 2.1 0.146 0.146 6.6614 15.5433 0.0442 0.0017 0.124583 -0.527547 11.90 490 780 0.09 -0.99 0.0000 0.0000
0.238 2 4.818896 0.704853 9.937475 1.182556 1.022339 0.122070 6.47 16.07 1.0 2.1 0.133 0.190 6.6288 15.7241 0.0446 0.0017 0.124583 -0.526093 11.90 490 780 0.09 -0.99 0.0000 0.0000
0.239 2 5.082617 0.721636 7.647900 0.793457 0.007629 0.221252 6.47 16.13 1.0 1.9 0.095 0.215 6.5964 16.0984 0.0448 0.0018 0.127179 -0.525944 11.90 490 800 0.09 -0.99 0.0000 0.0000
0.240 2 5.281606 1.270654 7.396167 0.343323 -0.686646 0.495911 6.47 16.20 1.0 2.2 0.082 0.158 6.5964 15.5433 0.0452 0.0018 0.127179 -0.527482 11.90 490 800 0.09 -0.99 0.0000 0.0000
0.241 2 5.089809 0.738418 9.462778 0.434875 -0.068665 0.488281 6.47 16.27 1.0 2.2 0.051 0.152 6.5013 15.7241 0.0456 0.0019 0.132370 -0.528069 11.91 510 820 0.09 -0.99 0.0000 0.0000
0.242 2 4.991514 0.577788 10.162837 0.724792 0.465393 0.205994 6.47 16.34 1.0 1.9 0.038 0.158 6.5013 16.2924 0.0458 0.0019 0.134965 -0.527016 11.91 490 780 0.09 -0.99 0.0000 0.0000
0.243 2 4.914795 0.724033 7.949980 1.045227 -0.297546 0.106812 6.47 16.40 1.1 2.2 0.070 0.146 6.3786 15.9091 0.0462 0.0020 0.134965 -0.526581 11.91 490 790 0.09 -0.99 0.0000 0.0000
0.244 2 4.950757 0.544224 7.319448 1.037598 -0.396729 0.205994 6.47 16.47 1.1 2.0 0.108 0.171 6.3786 16.2924 0.0464 0.0020 0.137561 -0.527530 11.91 490 790 0.09 -0.99 0.0000 0.0000
0.245 2 5.113784 0.714443 9.517920 0.709534 -0.083923 0.442505 6.47 16.54 1.2 2.3 0.152 0.165 6.2605 15.9091 0.0468 0.0020 0.137561 -0.527857 11.91 490 790 0.09 -0.99 0.0000 0.0000
0.246 2 5.015488 0.676084 9.541894 0.511169 -0.099182 0.488281 6.47 16.60 1.2 1.8 0.139 0.203 6.2605 16.9034 0.0472 0.0021 0.142752 -0.527079 11.87 510 810 0.09 -0.99 0.0000 0.0000
0.247 2 4.943564 0.733623 8.230483 0.679016 -0.350952 0.427246 6.47 16.67 1.1 1.8 0.095 0.133 6.3487 16.9034 0.0476 0.0021 0.142752 -0.526793 11.87 490 790 0.09 -0.99 0.0000 0.0000
0.248 2 4.900410 0.673687 8.136982 0.656128 -0.061035 0.404358 6.47 16.74 1.1 2.1 0.082 0.114 6.3487 16.4911 0.0478 0.0022 0.145347 -0.527087 11.87 490 790 0.09 -0.99 0.0000 0.0000
0.249 2 4.998706 0.649712 9.095966 0.587463 0.160217 0.297546 6.47 16.81 1.1 1.9 0.082 0.101 6.3786 16.9034 0.0482 0.0022 0.145347 -0.526991 11.87 490 790 0.09 -0.99 0.0000 0.0000
0.250 2 5.010693 0.719238 8.774707 0.717163 -0.122070 0.305176 6.47 16.87 1.1 1.9 0.133 0.139 6.3786 16.9034 0.0486 0.0023 0.150538 -0.526667 11.87 490 790 0.09 -0.99 0.0000 0.0000
0.251 2 4.969936 0.752803 8.419883 0.701904 -0.259399 0.434875 6.47 16.94 1.0 2.4 0.196 0.114 6.5644 16.0984 0.0490 0.0024 0.150538 -0.526658 11.91 510 810 0.09 -0.99 0.0000 0.0000
0.252 2 5.025078 0.776777 8.808271 0.602722 -0.129700 0.495911 6.47 17.01 1.0 2.1 0.152 0.139 6.5644 16.6947 0.0492 0.0024 0.153134 -0.526645 11.91 490 790 0.09 -0.99 0.0000 0.0000
0.253 2 5.284004 0.740815 8.856220 0.328064 -0.175476 0.633240 6.47 17.08 1.1 2.1 0.063 0.184 6.4702 16.6947 0.0496 0.0024 0.153134 -0.526679 11.91 490 790 0.09 -0.99 0.0000 0.0000
0.254 2 5.204887 1.201128 8.182534 0.343323 -0.679016 0.495911 6.47 17.14 1.1 2.1 0.070 0.171 6.4702 16.9034 0.0498 0.0025 0.155729 -0.527192 11.91 490 790 0.09 -0.99 0.0000 0.0000
0.255 2 4.351391 0.333247 8.182534 0.663757 -0.228882 0.434875 6.47 17.21 1.0 2.1 0.095 0.146 6.5327 16.9034 0.0504 0.0026 0.158325 -0.527209 11.91 490 790 0.09 -0.99 0.0000 0.0000
0.256 2 4.847666 -0.045552 10.205991 0.961304 0.999451 0.228882 6.47 17.28 1.0 2.2 0.139 0.146 6.5327 16.9034 0.0506 0.0026 0.160920 -0.525992 11.90 510 800 0.09 -0.99 0.0000 0.0000
0.257 2 5.480596 0.572993 9.083980 0.724792 0.144958 0.251770 6.47 17.34 1.1 2.1 0.089 0.215 6.4089 17.1173 0.0510 0.0027 0.160920 -0.525332 11.90 490 790 0.09 -0.99 0.0000 0.0000
0.258 2 5.375107 1.217910 6.619390 0.343323 -1.419067 0.442505 6.47 17.41 1.1 2.2 0.044 0.203 6.4089 16.9034 0.0512 0.0027 0.163516 -0.527068 11.90 490 790 0.09 -0.99 0.0000 0.0000
0.259 2 4.651074 0.817534 7.954775 -0.053406 -0.846863 0.503540 6.47 17.48 1.1 2.2 0.082 0.177 6.4089 17.1173 0.0517 0.0028 0.166111 -0.528642 11.90 490 800 0.09 -0.99 0.0000 0.0000
0.260 2 4.778140 0.923022 10.824535 -0.144958 1.045227 0.648499 6.47 17.55 1.1 2.1 0.089 0.171 6.3487 17.3368 0.0519 0.0028 0.168706 -0.527526 11.90 490 790 0.09 -0.99 0.0000 0.0000
0.261 2 4.986719 0.489082 9.146314 0.274658 0.503540 0.434875 6.47 17.61 1.1 2.3 0.089 0.165 6.3487 17.1173 0.0521 0.0029 0.171302 -0.526125 11.90 510 820 0.09 -0.99 0.0000 0.0000
0.262 2 5.137759 1.023716 6.564248 0.671387 -0.732422 0.274658 6.47 17.68 1.1 2.1 0.184 0.158 6.3190 17.5619 0.0525 0.0029 0.171302 -0.527226 11.90 490 790 0.09 -0.99 0.0000 0.0000
0.263 2 5.291196 0.397979 8.422280 0.839233 -0.762939 0.152588 6.47 17.75 1.1 2.3 0.114 0.146 6.3190 17.1173 0.0529 0.0030 0.176493 -0.528927 11.90 490 790 0.09 -0.99 0.0000 0.0000
0.264 2 5.248042 0.666494 10.244350 0.747681 -0.221252 0.267029 6.47 17.82 1.3 1.9 0.114 0.171 6.1189 18.0303 0.0533 0.0031 0.176493 -0.528703 11.90 490 780 0.09 -0.99 0.0000 0.0000
0.265 2 4.600728 1.035703 8.285625 0.335693 -0.457764 0.282288 6.47 17.88 1.3 1.9 0.120 0.158 6.1189 18.0303 0.0535 0.0031 0.179088 -0.527946 11.90 490 800 0.09 -0.99 0.0000 0.0000
0.266 2 4.902807 0.692866 7.700644 0.282288 -0.312805 0.595093 6.47 17.95 1.1 2.4 0.165 0.120 6.4394 17.1173 0.0541 0.0032 0.181684 -0.528130 11.91 510 820 0.09 -0.99 0.0000 0.0000
0.267 2 5.056245 0.393184 9.014453 0.297546 -0.289917 0.686646 6.47 18.02 1.1 2.5 0.177 0.120 6.4394 17.1173 0.0543 0.0033 0.184279 -0.528351 11.91 490 790 0.09 -0.99 0.0000 0.0000
0.268 2 5.334351 0.561006 8.851425 0.732422 -0.404358 0.770569 6.47 18.08 0.9 2.3 0.190 0.146 6.8296 17.5619 0.0547 0.0033 0.184279 -0.528326 11.91 490 750 0.09 -0.99 0.0000 0.0000
0.269 2 5.538135 1.258667 8.386318 0.617981 -0.991821 0.541687 6.47 18.15 0.9 2.2 0.101 0.234 6.8296 17.7930 0.0549 0.0034 0.186875 -0.529025 11.91 490 760 0.09 -0.99 0.0000 0.0000
0.270 2 4.291455 0.460312 7.695849 0.869751 -0.579834 0.259399 6.47 18.22 1.0 2.5 0.032 0.260 6.6614 17.3368 0.0555 0.0035 0.189470 -0.529378 11.91 490 800 0.09 -0.99 0.0000 0.0000
0.271 2 4.468867 0.175015 10.122080 1.571655 0.762939 0.289917 6.47 18.29 1.0 2.2 0.006 0.241 6.6614 18.0303 0.0557 0.0035 0.192066 -0.528046 11.88 510 820 0.09 -0.99 0.0000 0.0000
0.272 2 5.689175 0.515454 9.172686 0.823975 0.274658 0.267029 6.47 18.35 1.1 2.5 0.038 0.215 6.4089 17.5619 0.0561 0.0036 0.192066 -0.527194 11.88 490 790 0.09 -0.99 0.0000 0.0000
0.273 2 5.437441 1.553555 6.916675 0.457764 -2.075195 0.556946 6.47 18.42 1.1 2.4 -0.013 0.215 6.4089 17.7930 0.0565 0.0037 0.197257 -0.528863 11.88 490 790 0.09 -0.99 0.0000 0.0000
0.274 2 4.917192 0.680879 7.743799 -0.251770 -1.564026 0.671387 6.47 18.49 1.1 2.2 0.038 0.215 6.3190 18.2739 0.0569 0.0038 0.197257 -0.530620 11.88 490 790 0.09 -0.99 0.0000 0.0000
0.275 2 4.727793 1.227500 10.901255 0.099182 0.312805 0.625610 6.47 18.55 1.1 2.7 0.076 0.203 6.3190 17.3368 0.0571 0.0038 0.199852 -0.529776 11.88 490 790 0.09 -0.99 0.0000 0.0000
0.276 2 4.838076 0.086309 8.765117 0.373840 0.549316 0.389099 6.47 18.62 1.3 2.3 0.082 0.234 6.0640 18.2739 0.0577 0.0039 0.202448 -0.528323 11.88 510 820 0.09 -0.99 0.0000 0.0000
0.277 2 5.108989 1.028511 6.967021 0.854492 -1.091003 0.312805 6.47 18.69 1.3 2.1 0.089 0.222 6.0369 18.7815 0.0579 0.0040 0.205043 -0.529125 11.88 490 790 0.09 -0.99 0.0000 0.0000
0.278 2 5.238452 0.419556 8.067456 0.816345 -1.258850 0.411987 6.47 18.76 1.3 2.5 0.139 0.184 6.0369 18.0303 0.0581 0.0040 0.207639 -0.530634 11.88 490 800 0.09 -0.99 0.0000 0.0000
0.279 2 5.267221 0.376401 10.347441 1.274109 -0.511169 0.671387 6.47 18.82 1.1 2.5 0.203 0.139 6.2605 18.0303 0.0587 0.0041 0.210234 -0.530505 11.88 490 790 0.09 -0.99 0.0000 0.0000
0.280 2 5.406274 0.812739 8.479819 0.831604 -0.991821 0.915527 6.47 18.89 1.2 2.3 0.146 0.158 6.2605 18.5242 0.0589 0.0042 0.212830 -0.530295 11.88 490 800 0.09 -0.99 0.0000 0.0000
0.281 2 4.914795 1.222705 6.863930 0.495911 -1.838684 1.052856 6.47 18.96 0.9 2.6 0.095 0.234 6.8993 18.0303 0.0593 0.0042 0.212830 -0.531590 11.88 510 780 0.09 -0.99 0.0000 0.0000
0.282 2 4.516816 0.556211 8.686001 0.244141 -0.396729 0.640869 6.47 19.03 0.9 2.7 0.101 0.234 6.8993 18.0303 0.0596 0.0043 0.218021 -0.531983 11.88 490 760 0.09 -0.99 0.0000 0.0000
0.283 2 4.612715 -0.009590 10.973178 0.946045 0.885010 0.556946 6.47 19.09 1.0 2.3 -0.013 0.253 6.5964 18.7815 0.0600 0.0044 0.218021 -0.530133 11.88 490 780 0.09 -0.99 0.0000 0.0000
0.284 2 5.681982 0.541826 8.762719 0.816345 -0.114441 0.305176 6.47 19.16 1.0 2.1 -0.076 0.234 6.5964 19.3181 0.0604 0.0045 0.223212 -0.529264 11.88 490 800 0.09 -0.99 0.0000 0.0000
0.285 2 5.334351 1.117217 6.456362 1.144409 -2.441406 0.282288 6.47 19.23 0.9 2.4 -0.044 0.196 6.7613 18.7815 0.0608 0.0046 0.223212 -0.531338 11.88 490 780 0.09 -0.99 0.0000 0.0000
0.286 2 5.010693 0.767187 8.151367 0.877380 -1.533508 0.373840 6.47 19.29 0.9 2.2 0.006 0.158 6.7613 19.3181 0.0610 0.0046 0.225807 -0.533145 11.91 510 810 0.09 -0.99 0.0000 0.0000
0.287 2 4.473662 1.026113 10.568007 0.404358 -0.068665 0.511169 6.47 19.36 1.1 2.0 0.000 0.177 6.2896 19.5981 0.0616 0.0048 0.228403 -0.532023 11.91 490 790 0.09 -0.99 0.0000 0.0000
0.288 2 4.634292 1.100435 8.266445 0.083923 0.205994 0.549316 6.47 19.43 1.1 2.7 0.044 0.171 6.2896 18.5242 0.0618 0.0048 0.230998 -0.530511 11.91 490 800 0.09 -0.99 0.0000 0.0000
0.289 2 5.233657 0.469902 7.568784 0.221252 -0.999451 0.579834 6.47 19.50 1.1 2.3 0.139 0.139 6.2896 19.3181 0.0624 0.0050 0.233594 -0.531061 11.91 490 790 0.09 -0.99 0.0000 0.0000
0.290 2 5.236054 0.589775 8.302407 0.785828 -1.213074 0.732422 6.47 19.56 1.1 2.2 0.095 0.165 6.2896 19.5981 0.0626 0.0050 0.236189 -0.532125 11.91 490 790 0.09 -0.99 0.0000 0.0000
0.291 2 5.516557 0.261323 10.078925 1.014709 -0.595093 0.679016 6.47 19.63 1.3 2.5 0.063 0.133 5.9835 19.0460 0.0632 0.0052 0.238785 -0.532133 11.90 510 820 0.09 -0.99 0.0000 0.0000
0.292 2 4.691831 0.736021 7.878057 1.327515 -1.037598 0.587463 6.47 19.70 1.3 2.2 0.120 0.165 5.9835 19.5981 0.0634 0.0052 0.241380 -0.531887 11.90 490 790 0.09 -0.99 0.0000 0.0000
0.293 2 4.555176 0.381196 7.559194 1.228333 -0.541687 0.839233 6.47 19.76 1.3 2.3 0.152 0.196 5.9835 19.5981 0.0636 0.0052 0.243976 -0.532056 11.90 490 800 0.09 -0.99 0.0000 0.0000
0.294 2 5.058642 0.788765 9.405239 1.258850 -0.045776 1.167297 6.47 19.83 1.6 2.3 0.133 0.184 5.4527 19.5981 0.0642 0.0054 0.246571 -0.531780 11.90 490 800 0.09 -0.99 0.0000 0.0000
0.295 2 5.535737 0.918227 9.050415 0.587463 -0.328064 0.976562 6.47 19.90 1.6 2.4 0.158 0.171 5.4527 19.5981 0.0643 0.0054 0.249167 -0.531574 11.90 490 800 0.09 -0.99 0.0000 0.0000
0.296 2 4.869243 1.006934 7.659887 0.961304 -1.411438 0.701904 6.47 19.97 1.2 2.4 0.266 0.133 6.2317 19.5981 0.0649 0.0056 0.251762 -0.532105 11.90 510 820 0.09 -0.99 0.0000 0.0000
0.297 2 4.667856 0.124668 8.503794 1.518250 -0.312805 0.404358 6.47 20.03 1.2 2.3 0.234 0.139 6.2317 19.8863 0.0651 0.0056 0.254357 -0.532160 11.90 490 790 0.09 -0.99 0.0000 0.0000
0.298 2 5.295991 0.733623 10.153247 1.243591 -0.007629 0.343323 6.47 20.10 0.8 2.5 0.177 0.177 7.0431 19.5981 0.0657 0.0058 0.256953 -0.531355 11.90 490 760 0.09 -0.99 0.0000 0.0000
0.299 2 5.276811 1.124409 7.369795 1.014709 -1.266479 0.259399 6.47 20.17 0.8 2.0 0.095 0.177 7.0431 20.4889 0.0659 0.0058 0.259548 -0.531757 11.90 490 740 0.09 -0.99 0.0000 0.0000
0.300 2 4.830884 0.290093 7.362602 0.946045 -1.846313 0.267029 6.47 20.24 1.0 2.9 0.013 0.171 6.6944 19.0460 0.0665 0.0060 0.262144 -0.533155 11.90 490 800 0.09 -0.99 0.0000 0.0000
0.301 2 4.543189 1.301821 9.791230 0.747681 -0.099182 0.190735 6.47 20.30 1.0 2.8 -0.019 0.171 6.6944 19.3181 0.0667 0.0061 0.264739 -0.532665 11.90 510 820 0.09 -0.99 0.0000 0.0000
0.302 2 5.293593 0.338042 10.704662 1.014709 0.839233 0.190735 6.47 20.37 1.2 3.0 0.019 0.203 6.1747 19.0460 0.0671 0.0062 0.264739 -0.530959 11.90 490 780 0.09 -0.99 0.0000 0.0000
0.303 2 5.005898 0.342837 6.475542 1.136780 -1.304626 0.244141 6.47 20.44 1.2 2.4 0.044 0.253 6.1747 20.1831 0.0675 0.0063 0.269930 -0.531512 11.90 490 780 0.09 -0.99 0.0000 0.0000
0.304 2 5.154541 0.709648 6.919072 0.923157 -1.457214 0.335693 6.47 20.50 1.1 2.5 0.101 0.285 6.4089 20.1831 0.0678 0.0064 0.269930 -0.533866 11.90 490 780 0.09 -0.99 0.0000 0.0000
0.305 2 5.130566 0.750405 10.882075 0.999451 -0.167847 0.541687 6.47 20.57 1.1 2.5 0.190 0.272 6.4089 20.1831 0.0682 0.0065 0.275121 -0.534010 11.90 490 780 0.09 -0.99 0.0000 0.0000
0.306 2 4.850063 0.676084 9.611421 0.991821 0.366211 0.686646 6.47 20.64 0.8 2.5 0.222 0.241 6.9705 20.1831 0.0686 0.0066 0.275121 -0.532423 11.90 510 750 0.09 -0.99 0.0000 0.0000
0.307 2 4.965141 0.882266 6.688916 1.365662 -1.190186 0.854492 6.47 20.71 0.8 2.6 0.101 0.196 6.9705 20.1831 0.0690 0.0067 0.280312 -0.532836 11.90 490 740 0.09 -0.99 0.0000 0.0000
0.308 2 5.463813 0.565801 7.789351 0.900269 -0.869751 0.610352 6.47 20.77 1.1 2.3 0.019 0.203 6.4702 20.8041 0.0694 0.0068 0.280312 -0.534682 11.90 490 780 0.09 -0.99 0.0000 0.0000
0.309 2 5.075425 1.131602 10.436147 1.235962 -0.274658 0.411987 6.47 20.84 1.1 2.7 0.000 0.190 6.4702 20.1831 0.0698 0.0069 0.285503 -0.534642 11.90 490 770 0.09 -0.99 0.0000 0.0000
0.310 2 4.516816 -0.059937 8.537358 1.579285 0.007629 0.556946 6.47 20.91 1.3 2.5 0.038 0.196 5.9571 20.4889 0.0702 0.0070 0.285503 -0.533357 11.90 490 780 0.09 -0.99 0.0000 0.0000
0.311 2 5.118579 0.690469 8.014711 1.152039 -0.503540 0.541687 6.47 20.97 1.3 2.8 0.082 0.184 5.9571 20.1831 0.0706 0.0072 0.290694 -0.533245 11.88 510 800 0.09 -0.99 0.0000 0.0000
0.312 2 5.082617 1.196333 7.988339 0.305176 -0.976562 0.587463 6.47 21.04 1.3 2.6 0.101 0.184 5.9571 20.4889 0.0707 0.0072 0.293290 -0.533936 11.88 490 790 0.09 -0.99 0.0000 0.0000
0.313 2 4.823691 0.409966 9.256597 0.228882 -0.366211 0.366211 6.47 21.11 1.3 2.5 0.133 0.190 6.0101 20.8041 0.0713 0.0074 0.295885 -0.533741 11.88 490 780 0.09 -0.99 0.0000 0.0000
0.314 2 4.708613 0.469902 9.088774 0.633240 -0.144958 0.175476 6.47 21.18 1.3 2.9 0.222 0.184 6.0101 20.1831 0.0715 0.0074 0.298481 -0.532666 11.88 490 780 0.09 -0.99 0.0000 0.0000
0.315 2 5.063437 0.563403 8.383921 1.045227 -0.251770 0.228882 6.47 21.24 1.2 2.9 0.234 0.215 6.2031 20.1831 0.0721 0.0076 0.301076 -0.532233 11.88 490 780 0.09 -0.99 0.0000 0.0000
0.316 2 5.248042 0.743213 7.942788 0.984192 -0.663757 0.320435 6.47 21.31 1.2 2.5 0.190 0.253 6.2031 21.1292 0.0725 0.0077 0.306267 -0.532862 11.87 510 800 0.09 -0.99 0.0000 0.0000
0.317 2 5.315171 0.994946 8.666821 0.572205 -0.312805 0.640869 6.47 21.38 1.0 2.1 0.127 0.234 6.5964 21.8108 0.0729 0.0079 0.306267 -0.533547 11.87 490 780 0.09 -0.99 0.0000 0.0000
0.318 2 4.720601 0.863086 9.258994 0.732422 -0.068665 0.518799 6.47 21.45 1.0 2.2 0.177 0.152 6.5964 21.8108 0.0732 0.0080 0.311458 -0.533100 11.87 490 770 0.09 -0.99 0.0000 0.0000
0.319 2 4.679843 0.136655 8.870605 0.755310 0.740051 0.373840 6.47 21.51 0.9 2.2 0.120 0.146 6.9347 21.8108 0.0736 0.0081 0.311458 -0.532012 11.87 490 750 0.09 -0.99 0.0000 0.0000
0.320 2 5.120976 0.469902 8.825053 1.121521 0.343323 0.495911 6.47 21.58 0.9 2.8 0.051 0.152 6.9347 20.8041 0.0740 0.0082 0.316649 -0.531480 11.87 490 740 0.09 -0.99 0.0000 0.0000
0.321 2 5.423057 0.287695 7.731811 1.029968 -0.579834 0.579834 6.47 21.65 0.9 2.5 -0.013 0.165 6.7613 21.4646 0.0744 0.0084 0.316649 -0.532220 11.90 510 800 0.09 -0.99 0.0000 0.0000
0.322 2 5.420659 1.172358 8.230483 0.389099 -1.235962 0.350952 6.47 21.71 0.9 2.5 -0.044 0.152 6.7613 21.4646 0.0748 0.0085 0.321840 -0.533519 11.90 490 780 0.09 -0.99 0.0000 0.0000
0.323 2 4.250698 0.596968 8.757924 0.183105 -0.122070 0.122070 6.47 21.78 1.1 2.7 0.013 0.139 6.4394 21.1292 0.0753 0.0087 0.324436 -0.533206 11.90 490 770 0.09 -0.99 0.0000 0.0000
0.324 2 4.480855 0.091104 10.328261 0.732422 1.312256 -0.061035 6.47 21.85 1.1 2.6 0.076 0.203 6.4394 21.4646 0.0755 0.0087 0.327031 -0.531164 11.90 490 780 0.09 -0.99 0.0000 0.0000
0.325 2 5.310376 0.517852 8.597295 0.549316 0.801086 -0.053406 6.47 21.92 1.2 2.6 0.044 0.228 6.2317 21.4646 0.0761 0.0089 0.329627 -0.530159 11.90 490 790 0.09 -0.99 0.0000 0.0000
0.326 2 5.336748 0.930215 6.729672 0.640869 -0.968933 -0.061035 6.47 21.98 1.2 2.5 0.051 0.228 6.2317 21.8108 0.0763 0.0090 0.332222 -0.531779 11.90 510 810 0.09 -0.99 0.0000 0.0000
0.327 2 5.248042 0.759995 8.117803 -0.007629 -0.961304 0.000000 6.47 22.05 1.3 2.5 0.120 0.209 6.0369 21.8108 0.0769 0.0092 0.334817 -0.533586 11.90 490 780 0.09 -0.99 0.0000 0.0000
0.328 2 5.020283 1.412104 10.136464 -0.450134 0.610352 0.251770 6.47 22.12 1.3 2.6 0.127 0.165 6.0369 21.8108 0.0772 0.0093 0.340008 -0.533258 11.90 490 780 0.09 -0.99 0.0000 0.0000
0.329 2 4.442495 0.407568 8.837041 -0.244141 1.022339 0.114441 6.47 22.18 1.3 3.0 0.158 0.177 6.0369 21.1292 0.0776 0.0095 0.340008 -0.531849 11.90 490 770 0.09 -0.99 0.0000 0.0000
0.330 2 4.811704 0.570596 7.638310 0.366211 0.465393 -0.122070 6.47 22.25 1.2 2.1 0.152 0.209 6.2605 22.9198 0.0780 0.0096 0.345199 -0.531483 11.90 490 780 0.09 -0.99 0.0000 0.0000
0.331 2 5.387094 0.366812 8.489408 0.633240 0.022888 -0.282288 6.47 22.32 1.2 2.1 0.209 0.158 6.2605 22.9198 0.0782 0.0097 0.347795 -0.532118 11.91 510 810 0.09 -0.99 0.0000 0.0000
0.332 2 5.252837 0.445928 8.990479 0.617981 -0.183105 -0.091553 6.47 22.39 1.0 2.9 0.165 0.089 6.5644 21.4646 0.0788 0.0099 0.350390 -0.532416 11.91 490 780 0.09 -0.99 0.0000 0.0000
0.333 2 5.056245 0.580186 8.350356 -0.061035 -0.251770 0.114441 6.47 22.45 1.0 3.0 0.171 0.101 6.5644 21.4646 0.0791 0.0100 0.355581 -0.532503 11.91 490 790 0.09 -0.99 0.0000 0.0000
0.334 2 4.749370 0.745610 8.309599 -0.228882 0.114441 0.228882 6.47 22.52 0.9 2.4 0.152 0.209 6.7277 22.5378 0.0795 0.0102 0.355581 -0.532492 11.91 490 780 0.09 -0.99 0.0000 0.0000
0.335 2 4.847666 0.702456 9.045620 -0.190735 0.450134 0.038147 6.47 22.59 0.9 3.1 0.089 0.241 6.7277 21.4646 0.0799 0.0103 0.360772 -0.531954 11.91 490 790 0.09 -0.99 0.0000 0.0000
0.336 2 5.312773 0.515454 8.803476 0.122070 0.091553 -0.114441 6.47 22.66 1.1 2.7 0.019 0.234 6.5013 22.1684 0.0803 0.0104 0.360772 -0.531663 11.88 510 810 0.09 -0.99 0.0000 0.0000
0.337 2 5.396684 0.091104 8.252060 0.076294 -0.236511 -0.114441 6.47 22.72 1.1 2.8 0.000 0.253 6.5013 22.1684 0.0806 0.0106 0.365963 -0.532246 11.88 490 790 0.09 -0.99 0.0000 0.0000
0.338 2 4.574355 1.249077 8.290420 -0.648499 -0.205994 -0.335693 6.47 22.79 1.0 2.6 0.051 0.203 6.5964 22.5378 0.0812 0.0108 0.368559 -0.532437 11.88 490 790 0.09 -0.99 0.0000 0.0000
0.339 2 5.116181 1.225103 9.858359 -0.885010 0.701904 -0.236511 6.47 22.86 1.0 3.2 0.133 0.222 6.5964 21.4646 0.0814 0.0109 0.371154 -0.531621 11.88 490 780 0.09 -0.99 0.0000 0.0000
0.340 2 5.228862 0.716841 8.314394 -1.052856 -0.259399 0.000000 6.47 22.92 1.1 2.7 0.158 0.228 6.5013 22.5378 0.0820 0.0111 0.373750 -0.531388 11.88 490 790 0.09 -0.99 0.0000 0.0000
0.341 2 4.833281 0.644917 7.026958 -0.946045 -0.541687 -0.015259 6.47 22.99 1.1 3.2 0.158 0.247 6.5013 21.8108 0.0823 0.0112 0.378941 -0.532396 11.88 510 810 0.09 -0.99 0.0000 0.0000
0.342 2 5.111387 0.433940 9.673755 -0.427246 0.366211 -0.205994 6.47 23.06 1.0 2.8 0.101 0.234 6.5327 22.5378 0.0827 0.0114 0.378941 -0.532633 11.88 490 780 0.09 -0.99 0.0000 0.0000
0.343 2 4.842871 0.246938 9.697729 -0.297546 1.037598 -0.198364 6.47 23.13 1.0 2.6 0.038 0.228 6.5327 22.9198 0.0831 0.0115 0.384132 -0.531472 11.88 490 770 0.09 -0.99 0.0000 0.0000
0.344 2 5.142553 0.575391 7.875659 -0.450134 0.000000 -0.007629 6.47 23.19 1.1 3.1 0.032 0.228 6.4394 22.1684 0.0836 0.0118 0.386727 -0.531252 11.88 490 770 0.09 -0.99 0.0000 0.0000
0.345 2 4.984321 1.186743 7.353013 -0.701904 -1.190186 0.061035 6.47 23.26 1.1 3.3 0.063 0.228 6.4394 21.8108 0.0838 0.0118 0.389323 -0.532368 11.88 490 790 0.09 -0.99 0.0000 0.0000
0.346 2 4.967539 -0.359619 9.167891 -1.945496 0.190735 0.091553 6.47 23.33 1.1 2.4 0.057 0.285 6.3786 23.7240 0.0844 0.0121 0.391918 -0.532649 11.87 510 810 0.09 -0.99 0.0000 0.0000
0.347 2 5.300786 1.042895 11.169770 -1.152039 0.846863 0.213623 6.47 23.39 1.1 3.0 0.152 0.266 6.3786 22.5378 0.0848 0.0122 0.397109 -0.531396 11.87 490 790 0.09 -0.99 0.0000 0.0000
0.348 2 5.355927 0.208579 7.779760 -1.045227 -0.801086 -0.228882 6.47 23.46 1.1 2.7 0.120 0.203 6.4702 23.3150 0.0851 0.0124 0.397109 -0.531230 11.87 490 780 0.09 -0.99 0.0000 0.0000
0.349 2 5.013091 1.510400 6.159077 -1.174927 -1.724243 -0.396729 6.47 23.53 1.1 2.5 0.025 0.222 6.4702 23.7240 0.0855 0.0125 0.402300 -0.533466 11.87 490 780 0.09 -0.99 0.0000 0.0000
0.350 2 4.339404 1.071665 8.510986 -1.335144 0.350952 0.022888 6.47 23.60 1.1 2.7 0.057 0.196 6.4394 23.3150 0.0860 0.0128 0.404896 -0.534346 11.87 490 780 0.09 -0.99 0.0000 0.0000
0.351 2 4.912397 0.486685 11.280053 -1.762390 1.907349 0.152588 6.47 23.66 1.1 2.8 0.089 0.177 6.4394 23.3150 0.0864 0.0129 0.410087 -0.532481 11.90 510 800 0.09 -0.99 0.0000 0.0000
0.352 2 5.065835 0.877471 8.331177 -2.075195 -0.167847 -0.137329 6.47 23.73 1.0 2.8 0.120 0.158 6.5964 23.3150 0.0868 0.0131 0.410087 -0.531397 11.90 490 780 0.09 -0.99 0.0000 0.0000
0.353 2 4.931577 0.563403 5.912138 -2.006531 -1.243591 -0.045776 6.47 23.80 1.0 2.6 0.101 0.171 6.5964 23.7240 0.0872 0.0133 0.415278 -0.533179 11.90 490 780 0.09 -0.99 0.0000 0.0000
0.354 2 5.264824 0.033564 9.450790 -1.724243 0.312805 -0.099182 6.47 23.87 1.1 2.9 0.101 0.196 6.5013 23.3150 0.0877 0.0135 0.417873 -0.534545 11.90 490 790 0.09 -0.99 0.0000 0.0000
0.355 2 4.950757 0.846304 10.253941 -1.625061 1.014709 -0.152588 6.47 23.93 1.1 2.5 0.051 0.209 6.5013 24.1477 0.0879 0.0136 0.420468 -0.533434 11.90 490 780 0.09 -0.99 0.0000 0.0000
0.356 2 4.512022 0.551416 7.218755 -1.739502 -0.221252 -0.015259 6.47 24.00 1.1 2.5 0.076 0.196 6.5013 24.1477 0.0884 0.0138 0.423064 -0.532849 11.90 510 810 0.09 -0.99 0.0000 0.0000
0.357 2 4.699023 0.733623 7.719824 -1.609802 -0.022888 0.015259 6.47 24.07 1.1 2.6 0.082 0.133 6.4702 24.1477 0.0888 0.0140 0.428255 -0.533244 11.90 490 780 0.09 -0.99 0.0000 0.0000
0.358 2 5.382299 0.575391 10.467314 -1.625061 0.976562 0.061035 6.47 24.13 1.1 2.8 0.120 0.139 6.4702 23.7240 0.0892 0.0142 0.433446 -0.532793 11.90 490 780 0.09 -0.99 0.0000 0.0000
0.359 2 5.243247 0.824727 8.534961 -1.884460 0.099182 -0.015259 6.47 24.20 1.1 2.2 0.196 0.133 6.4089 25.0420 0.0897 0.0144 0.436041 -0.532390 11.90 490 790 0.09 -0.99 0.0000 0.0000
0.360 2 4.921987 0.908638 6.573838 -2.120972 -0.808716 -0.038147 6.47 24.27 1.1 3.5 0.089 0.127 6.4089 22.5378 0.0899 0.0145 0.438637 -0.533671 11.90 490 790 0.09 -0.99 0.0000 0.0000
0.361 2 4.874038 0.815137 9.134326 -2.075195 0.083923 -0.083923 6.47 24.34 1.1 3.4 0.063 0.127 6.3190 22.9198 0.0904 0.0148 0.441232 -0.534326 11.88 510 810 0.09 -0.99 0.0000 0.0000
0.362 2 4.898013 0.592173 10.335454 -2.220154 0.953674 -0.282288 6.47 24.40 1.1 2.8 0.070 0.228 6.3190 24.1477 0.0908 0.0149 0.446423 -0.532971 11.88 490 780 0.09 -0.99 0.0000 0.0000
0.363 2 5.099399 0.656904 7.866069 -2.120972 0.236511 -0.274658 6.47 24.47 1.2 2.8 0.095 0.260 6.2896 24.1477 0.0912 0.0151 0.446423 -0.532483 11.88 490 780 0.09 -0.99 0.0000 0.0000
0.364 2 5.001103 0.692866 7.134843 -1.785278 -0.732422 -0.129700 6.47 24.54 1.2 2.9 0.101 0.285 6.2896 24.1477 0.0915 0.0153 0.451614 -0.533691 11.88 490 790 0.09 -0.99 0.0000 0.0000
0.365 2 5.329556 0.652109 9.237416 -1.899719 -0.038147 -0.053406 6.47 24.60 1.2 2.9 0.146 0.215 6.2317 24.1477 0.0921 0.0155 0.454210 -0.534364 11.88 490 790 0.09 -0.99 0.0000 0.0000
0.366 2 5.029873 0.958984 9.441201 -2.265930 0.648499 -0.022888 6.47 24.67 1.2 2.7 0.165 0.209 6.2317 24.5867 0.0924 0.0157 0.459401 -0.533805 11.88 510 810 0.09 -0.99 0.0000 0.0000
0.367 2 4.641484 0.891855 7.719824 -2.395630 -0.045776 0.129700 6.47 24.74 1.0 3.4 0.165 0.190 6.5644 23.3150 0.0928 0.0159 0.459401 -0.533435 11.88 490 780 0.09 -0.99 0.0000 0.0000
0.368 2 5.161733 0.486685 8.319189 -3.089905 0.175476 0.137329 6.47 24.81 1.0 2.8 0.101 0.234 6.5644 24.5867 0.0932 0.0161 0.464592 -0.533729 11.88 490 790 0.09 -0.99 0.0000 0.0000
0.369 2 5.315171 1.253872 9.843974 -2.296448 0.846863 0.228882 6.47 24.87 0.9 3.3 0.108 0.241 6.8993 23.7240 0.0937 0.0164 0.467187 -0.533552 11.88 490 750 0.09 -0.99 0.0000 0.0000
0.370 2 4.672651 -0.256528 8.522973 -1.403809 -0.083923 0.099182 6.47 24.94 0.8 3.4 0.063 0.222 6.8993 23.7240 0.0941 0.0165 0.472378 -0.532847 11.88 490 750 0.09 -0.99 0.0000 0.0000
0.371 2 5.514160 1.074062 7.854082 -2.037048 -0.213623 -0.190735 6.47 25.01 1.0 3.0 -0.006 0.253 6.6288 24.5867 0.0946 0.0168 0.474974 -0.533324 11.88 510 810 0.09 -0.99 0.0000 0.0000
0.372 2 4.785332 0.903843 8.091431 -1.617432 -0.411987 0.137329 6.47 25.08 1.0 3.0 -0.044 0.266 6.6288 24.5867 0.0948 0.0169 0.477569 -0.534117 11.88 490 790 0.09 -0.99 0.0000 0.0000
0.373 2 5.248042 0.282900 9.287764 -1.937866 0.259399 0.144958 6.47 25.14 1.1 3.1 -0.013 0.260 6.2896 24.5867 0.0953 0.0172 0.480165 -0.533922 11.88 490 790 0.09 -0.99 0.0000 0.0000
0.374 2 5.106592 1.227500 9.309340 -2.494812 -0.091553 0.183105 6.47 25.21 1.1 2.6 0.025 0.228 6.2896 25.5145 0.0957 0.0174 0.485356 -0.533407 11.88 490 780 0.09 -0.99 0.0000 0.0000
0.375 2 4.586343 1.088447 7.412949 -3.005981 0.000000 0.480652 6.47 25.28 1.2 2.6 0.146 0.196 6.1747 25.5145 0.0962 0.0176 0.487951 -0.533299 11.88 490 770 0.09 -0.99 0.0000 0.0000
0.376 2 5.183311 0.503467 9.218237 -2.830505 0.671387 0.541687 6.47 25.34 1.2 2.7 0.171 0.177 6.1467 25.5145 0.0966 0.0178 0.493142 -0.533290 11.90 510 810 0.09 -0.99 0.0000 0.0000
0.377 2 5.068232 1.059678 8.544551 -2.372742 0.564575 0.457764 6.47 25.41 1.2 3.4 0.146 0.171 6.1467 24.1477 0.0969 0.0180 0.498333 -0.533091 11.90 490 790 0.09 -0.99 0.0000 0.0000
0.378 2 4.881230 0.189399 7.882851 -1.983643 0.076294 -0.038147 6.47 25.48 1.3 3.0 0.152 0.196 5.9835 25.0420 0.0973 0.0182 0.498333 -0.533319 11.90 490 780 0.09 -0.99 0.0000 0.0000
0.379 2 4.502431 0.918227 8.676411 -1.602173 -0.015259 -0.236511 6.47 25.55 1.3 3.3 0.114 0.203 5.9835 24.5867 0.0976 0.0184 0.503524 -0.532987 11.90 490 780 0.09 -0.99 0.0000 0.0000
0.380 2 4.866846 -0.067129 9.558677 -2.021790 1.014709 -0.129700 6.47 25.61 1.1 2.8 0.089 0.234 6.3190 25.5145 0.0981 0.0187 0.506120 -0.531826 11.90 490 780 0.09 -0.99 0.0000 0.0000
0.381 2 5.334351 1.476836 8.525371 -2.288818 0.694275 0.137329 6.47 25.68 1.1 3.1 0.171 0.272 6.3190 25.0420 0.0985 0.0189 0.511311 -0.531479 11.88 510 810 0.09 -0.99 0.0000 0.0000
0.382 2 5.212080 0.311670 7.326641 -2.906799 0.053406 0.434875 6.47 25.75 0.8 2.9 0.177 0.241 6.9347 25.5145 0.0990 0.0192 0.513906 -0.532606 11.88 490 750 0.09 -0.99 0.0000 0.0000
0.383 2 4.991514 0.961382 9.906308 -2.273560 0.526428 0.244141 6.47 25.81 0.8 3.0 0.032 0.215 6.9347 25.5145 0.0994 0.0194 0.519097 -0.532797 11.88 490 740 0.09 -0.99 0.0000 0.0000
0.384 2 4.708613 0.326055 9.294956 -1.617432 1.266479 0.244141 6.47 25.88 1.0 3.3 0.013 0.196 6.6288 25.0420 0.0999 0.0197 0.521693 -0.531495 11.88 490 780 0.09 -0.99 0.0000 0.0000
0.385 2 4.941167 0.927817 7.225947 -1.434326 0.953674 0.129700 6.47 25.95 1.0 3.1 0.025 0.209 6.6288 25.5145 0.1002 0.0199 0.526884 -0.531532 11.88 490 790 0.09 -0.99 0.0000 0.0000
0.386 2 5.061040 0.999741 6.640966 -2.540588 0.312805 0.160217 6.47 26.02 0.9 2.6 0.095 0.209 6.7277 26.5151 0.1006 0.0201 0.526884 -0.533381 11.90 510 810 0.09 -0.99 0.0000 0.0000
0.387 2 4.902807 1.105229 9.728896 -2.487183 0.740051 0.366211 6.47 26.08 0.9 3.1 0.038 0.165 6.7277 25.5145 0.1009 0.0203 0.532075 -0.533880 11.90 490 780 0.09 -0.99 0.0000 0.0000
0.388 2 5.068232 0.388389 10.357031 -2.449036 1.289368 0.167847 6.47 26.15 1.1 2.9 0.006 0.165 6.3190 26.0052 0.1015 0.0206 0.534670 -0.532418 11.90 490 780 0.09 -0.99 0.0000 0.0000
0.389 2 5.269619 1.018921 8.122598 -2.151489 0.885010 0.198364 6.47 26.22 1.1 2.7 0.006 0.228 6.3190 26.5151 0.1018 0.0208 0.539861 -0.532060 11.90 490 780 0.09 -0.99 0.0000 0.0000
0.390 2 4.883628 0.357222 6.609799 -1.815796 0.335693 0.122070 6.47 26.29 1.1 3.0 0.063 0.209 6.3190 26.0052 0.1023 0.0211 0.542457 -0.533512 11.90 490 780 0.09 -0.99 0.0000 0.0000
0.391 2 5.068232 0.779175 9.441201 -1.464844 1.052856 0.335693 6.47 26.35 1.1 3.0 0.070 0.165 6.3190 26.0052 0.1027 0.0213 0.547648 -0.534113 11.90 510 810 0.09 -0.99 0.0000 0.0000
0.392 2 5.089809 0.690469 10.069336 -1.716614 1.083374 0.450134 6.47 26.42 1.3 2.8 0.146 0.184 6.0101 26.5151 0.1032 0.0216 0.550243 -0.533030 11.90 490 770 0.09 -0.99 0.0000 0.0000
0.393 2 5.108989 1.052485 8.240073 -1.770020 0.991821 0.343323 6.47 26.49 1.3 3.6 0.146 0.190 6.0101 25.0420 0.1035 0.0219 0.555434 -0.532586 11.90 490 790 0.09 -0.99 0.0000 0.0000
0.394 2 5.077822 0.493877 7.846889 -1.945496 0.274658 0.289917 6.47 26.55 1.3 3.2 0.241 0.196 6.0101 26.0052 0.1039 0.0221 0.560625 -0.533210 11.90 490 790 0.09 -0.99 0.0000 0.0000
0.395 2 5.329556 1.093242 8.959311 -1.983643 0.946045 0.144958 6.47 26.62 1.6 3.5 0.196 0.253 5.4527 25.5145 0.1042 0.0223 0.560625 -0.533641 11.90 490 780 0.09 -0.99 0.0000 0.0000
0.396 2 4.833281 0.700059 8.849028 -1.609802 0.946045 0.244141 6.47 26.69 1.6 3.5 0.222 0.234 5.4527 25.5145 0.1045 0.0225 0.565816 -0.533320 11.85 510 810 0.09 -0.99 0.0000 0.0000
0.397 2 4.770947 0.807944 8.103417 -1.579285 1.258850 0.358582 6.47 26.76 1.1 3.3 0.253 0.285 6.2317 26.0052 0.1051 0.0228 0.568412 -0.532958 11.85 490 790 0.09 -0.99 0.0000 0.0000
0.398 2 4.732588 0.805547 8.841836 -1.403809 1.502991 -0.228882 6.47 26.82 1.2 3.6 0.260 0.291 6.2317 25.5145 0.1054 0.0230 0.573602 -0.532515 11.85 490 790 0.09 -0.99 0.0000 0.0000
0.399 2 4.737383 0.251733 8.077045 -1.228333 1.182556 -0.190735 6.47 26.89 0.8 2.9 0.253 0.298 7.0799 27.0454 0.1059 0.0234 0.576198 -0.532065 11.85 490 750 0.09 -0.99 0.0000 0.0000
0.400 2 5.770689 1.239487 8.379126 -2.098083 0.900269 0.228882 6.47 26.96 0.8 3.2 0.127 0.260 7.0799 26.5151 0.1062 0.0236 0.581389 -0.532734 11.85 490 750 0.09 -0.99 0.0000 0.0000
0.401 4 5.264824 1.323398 8.520576 -2.647400 0.564575 0.450134 6.54 27.03 0.9 2.6 -0.006 0.241 6.8296 27.5973 0.1067 0.0239 0.583985 -0.533623 11.90 510 770 0.09 -0.99 0.0000 0.0000
0.402 4 4.715806 0.544224 10.191607 -2.044678 1.777649 0.221252 6.60 27.09 1.0 3.5 -0.089 0.228 6.8296 26.0052 0.1071 0.0241 0.589176 -0.532807 11.90 490 790 0.09 -0.99 0.0000 0.0000
0.403 4 4.979526 0.954189 9.551484 -1.373291 1.976013 -0.305176 6.67 27.16 1.3 3.0 0.013 0.177 6.2317 27.0454 0.1076 0.0245 0.591771 -0.531273 11.90 490 780 0.09 -0.99 0.0000 0.0000
0.404 4 5.156939 0.239746 6.815981 -0.778198 1.174927 -0.320435 6.74 27.23 1.3 3.3 0.063 0.209 6.2317 26.5151 0.1079 0.0247 0.596962 -0.531897 11.90 490 780 0.09 -0.99 0.0000 0.0000
0.405 4 5.073027 0.537031 7.575976 -0.999451 0.625610 -0.022888 6.80 27.29 1.3 3.1 0.133 0.184 6.4089 27.0454 0.1084 0.0250 0.599558 -0.533603 11.90 490 780 0.09 -0.99 0.0000 0.0000
0.406 4 5.123374 1.167563 10.229965 -1.914978 1.220703 0.465393 6.87 27.36 1.3 3.1 0.146 0.247 6.4089 27.0454 0.1087 0.0253 0.604749 -0.533460 11.87 510 790 0.09 -0.99 0.0000 0.0000
0.407 4 4.802114 1.095640 9.352495 -2.670288 1.411438 0.350952 6.94 27.43 1.1 3.2 0.209 0.228 6.9705 27.0454 0.1092 0.0256 0.607344 -0.532167 11.87 490 740 0.09 -0.99 0.0000 0.0000
0.408 4 4.377764 0.455518 6.535478 -1.724243 0.755310 0.137329 7.01 27.50 1.1 3.2 0.222 0.228 6.9705 27.0454 0.1096 0.0259 0.612535 -0.532151 11.87 490 740 0.09 -0.99 0.0000 0.0000
0.409 4 5.329556 0.405171 8.089033 -1.548767 1.052856 -0.068665 7.07 27.56 1.3 3.6 0.146 0.215 6.6614 26.5151 0.1101 0.0262 0.615131 -0.533209 11.87 490 790 0.09 -0.99 0.0000 0.0000
0.410 4 5.502172 1.563144 9.903911 -1.068115 1.258850 -0.198364 7.14 27.63 1.3 3.0 0.120 0.215 6.6614 27.5973 0.1104 0.0264 0.620322 -0.533419 11.87 490 790 0.09 -0.99 0.0000 0.0000
0.411 4 4.989116 0.889458 8.937734 -1.029968 1.083374 -0.175476 7.21 27.70 1.5 3.9 0.146 0.228 6.4089 26.0052 0.1109 0.0268 0.622917 -0.532898 11.88 510 810 0.09 -0.99 0.0000 0.0000
0.412 4 5.053847 1.078857 8.590102 -0.831604 1.083374 -0.106812 7.27 27.76 1.5 3.7 0.209 0.228 6.4089 26.5151 0.1112 0.0270 0.628108 -0.532633 11.88 490 780 0.09 -0.99 0.0000 0.0000
0.413 4 5.123374 0.613750 8.633257 -1.243591 1.815796 -0.038147 7.34 27.83 1.4 3.2 0.272 0.266 6.7277 27.5973 0.1117 0.0274 0.630704 -0.532629 11.88 490 790 0.09 -0.99 0.0000 0.0000
0.414 4 4.936372 1.021318 8.105815 -1.586914 1.731873 -0.007629 7.41 27.90 1.4 3.5 0.241 0.304 6.7277 27.0454 0.1120 0.0276 0.635895 -0.532770 11.88 490 780 0.09 -0.99 0.0000 0.0000
